timestamp,ax,ay,az,gx,gy,gz,mx,my,mz,lat,lng,alt,speed,bearing
3544.933,-1.7297,7.8617,5.4409,0.000000,0.000000,0.000000,0.0000,0.0000,0.0000,0.000000,0.000000,0.0,0.00,0.0
3544.935,-1.7344,7.8569,5.4959,0.000000,0.000000,0.000000,0.0000,0.0000,0.0000,0.000000,0.000000,0.0,0.00,0.0
3544.937,-1.7081,7.8880,5.5534,0.000000,0.000000,0.000000,0.0000,0.0000,0.0000,0.000000,0.000000,0.0,0.00,0.0
3544.941,-1.7105,7.8737,5.6013,0.000000,0.000000,0.000000,0.0000,0.0000,0.0000,0.000000,0.000000,0.0,0.00,0.0
3544.946,-1.7392,7.9287,5.6539,0.000000,0.000000,0.000000,29.0817,-19.2139,-28.3539,0.000000,0.000000,0.0,0.00,0.0
3544.947,-1.6387,7.9479,5.6468,0.000000,0.000000,0.000000,29.0817,-19.2139,-28.3539,0.000000,0.000000,0.0,0.00,0.0
3544.948,-1.6291,7.8737,5.6587,0.000000,0.000000,0.000000,29.0817,-19.2139,-28.3539,0.000000,0.000000,0.0,0.00,0.0
3544.950,-1.7320,7.8186,5.7545,0.000000,0.000000,0.000000,29.0817,-19.2139,-28.3539,0.000000,0.000000,0.0,0.00,0.0
3544.952,-1.7728,7.7947,5.7665,0.000000,0.000000,0.000000,29.0817,-19.2139,-28.3539,0.000000,0.000000,0.0,0.00,0.0
3544.955,-1.8757,7.7875,5.8072,0.000000,0.000000,0.000000,29.0817,-19.2139,-28.3539,0.000000,0.000000,0.0,0.00,0.0
3544.968,-1.8877,7.7468,5.7473,0.000000,0.000000,0.000000,29.0817,-19.2139,-28.3539,0.000000,0.000000,0.0,0.00,0.0
3544.969,-1.8542,7.7947,5.7545,0.000000,0.000000,0.000000,29.0817,-19.2139,-28.3539,0.000000,0.000000,0.0,0.00,0.0
3544.969,-1.8422,7.7923,5.7497,0.000000,0.000000,0.000000,28.6163,-20.8878,-27.4780,0.000000,0.000000,0.0,0.00,0.0
3544.969,-1.8134,7.8330,5.7210,0.000000,0.000000,0.000000,28.6163,-20.8878,-27.4780,0.000000,0.000000,0.0,0.00,0.0
3544.970,-1.7919,7.8354,5.7138,0.000000,0.000000,0.000000,28.6163,-20.8878,-27.4780,0.000000,0.000000,0.0,0.00,0.0
3544.970,-1.7632,7.8665,5.6539,0.000000,0.000000,0.000000,28.6163,-20.8878,-27.4780,0.000000,0.000000,0.0,0.00,0.0
3544.974,-1.7105,7.8354,5.6133,0.000000,0.000000,0.000000,28.6163,-20.8878,-27.4780,0.000000,0.000000,0.0,0.00,0.0
3544.976,-1.6483,7.9287,5.5318,0.000000,0.000000,0.000000,28.6163,-20.8878,-27.4780,0.000000,0.000000,0.0,0.00,0.0
3544.978,-1.5549,7.9814,5.4672,0.000000,0.000000,0.000000,28.6163,-20.8878,-27.4780,0.000000,0.000000,0.0,0.00,0.0
3544.980,-1.5166,7.9455,5.4289,0.000000,0.000000,0.000000,28.6163,-20.8878,-27.4780,0.000000,0.000000,0.0,0.00,0.0
3544.982,-1.4807,8.0030,5.3618,0.000000,0.000000,0.000000,28.9215,-20.4346,-29.9072,0.000000,0.000000,0.0,0.00,0.0
3544.985,-1.4160,8.0269,5.2876,0.000000,0.000000,0.000000,28.9215,-20.4346,-29.9072,0.000000,0.000000,0.0,0.00,0.0
3544.988,-1.4040,8.0173,5.2326,0.000000,0.000000,0.000000,28.9215,-20.4346,-29.9072,0.000000,0.000000,0.0,0.00,0.0
3544.991,-1.3681,8.0317,5.1727,0.000000,0.000000,0.000000,28.9215,-20.4346,-29.9072,0.000000,0.000000,0.0,0.00,0.0
3544.994,-1.3777,7.9718,5.1416,0.000000,0.000000,0.000000,28.9215,-20.4346,-29.9072,0.000000,0.000000,0.0,0.00,0.0
3544.996,-1.3538,7.9742,5.1272,0.000000,0.000000,0.000000,28.9215,-20.4346,-29.9072,0.000000,0.000000,0.0,0.00,0.0
3544.998,-1.3681,7.9958,5.0937,0.000000,0.000000,0.000000,28.9215,-20.4346,-29.9072,0.000000,0.000000,0.0,0.00,0.0
3545.001,-1.3897,8.0365,5.1152,0.000000,0.000000,0.000000,28.9215,-20.4346,-29.9072,0.000000,0.000000,0.0,0.00,0.0
3545.002,-1.3322,8.0700,5.1296,0.000000,0.000000,0.000000,27.8503,-21.2036,-29.9255,0.000000,0.000000,0.0,0.00,0.0
3545.005,-1.3346,8.0269,5.1368,0.000000,0.000000,0.000000,27.8503,-21.2036,-29.9255,0.000000,0.000000,0.0,0.00,0.0
3545.008,-1.2987,8.0508,5.1464,0.000000,0.000000,0.000000,27.8503,-21.2036,-29.9255,0.000000,0.000000,0.0,0.00,0.0
3545.011,-1.3657,8.0341,5.1799,0.000000,0.000000,0.000000,27.8503,-21.2036,-29.9255,0.000000,0.000000,0.0,0.00,0.0
3545.013,-1.3250,8.0676,5.1751,0.000000,0.000000,0.000000,27.8503,-21.2036,-29.9255,0.000000,0.000000,0.0,0.00,0.0
3545.016,-1.3418,8.0484,5.2158,0.000000,0.000000,0.000000,27.8503,-21.2036,-29.9255,0.000000,0.000000,0.0,0.00,0.0
3545.019,-1.3490,8.0197,5.2062,0.000000,0.000000,0.000000,27.8503,-21.2036,-29.9255,0.000000,0.000000,0.0,0.00,0.0
3545.021,-1.3179,7.9934,5.2182,0.000000,0.000000,0.000000,27.8503,-21.2036,-29.9255,0.000000,0.000000,0.0,0.00,0.0
3545.023,-1.2771,8.0006,5.2230,0.000000,0.000000,0.000000,28.6194,-20.1294,-28.0701,0.000000,0.000000,0.0,0.00,0.0
3545.025,-1.2388,8.0532,5.2900,-0.027344,-0.157196,0.080170,28.6194,-20.1294,-28.0701,0.000000,0.000000,0.0,0.00,0.0
3545.029,-1.2724,8.0556,5.3427,-0.034805,-0.154007,0.078033,28.6194,-20.1294,-28.0701,0.000000,0.000000,0.0,0.00,0.0
3545.031,-1.2388,8.0437,5.3355,-0.039063,-0.154007,0.074844,28.6194,-20.1294,-28.0701,0.000000,0.000000,0.0,0.00,0.0
3545.034,-1.2628,8.0748,5.3523,-0.043320,-0.147614,0.070572,28.6194,-20.1294,-28.0701,0.000000,0.000000,0.0,0.00,0.0
3545.036,-1.2676,8.1035,5.3834,-0.044388,-0.142288,0.068451,28.6194,-20.1294,-28.0701,0.000000,0.000000,0.0,0.00,0.0
3545.038,-1.2987,8.0772,5.3858,-0.043320,-0.140152,0.066315,28.6194,-20.1294,-28.0701,0.000000,0.000000,0.0,0.00,0.0
3545.040,-1.3107,8.0389,5.4145,-0.047577,-0.135895,0.063126,28.6194,-20.1294,-28.0701,0.000000,0.000000,0.0,0.00,0.0
3545.043,-1.3035,8.0508,5.4576,-0.047577,-0.129501,0.059921,29.2328,-19.3649,-28.0518,0.000000,0.000000,0.0,0.00,0.0
3545.045,-1.3226,8.0652,5.4050,-0.044388,-0.128433,0.060989,29.2328,-19.3649,-28.0518,0.000000,0.000000,0.0,0.00,0.0
3545.049,-1.3609,8.0796,5.4361,-0.047577,-0.125244,0.060989,29.2328,-19.3649,-28.0518,0.000000,0.000000,0.0,0.00,0.0
3545.051,-1.3538,8.0916,5.4073,-0.045456,-0.122040,0.062057,29.2328,-19.3649,-28.0518,0.000000,0.000000,0.0,0.00,0.0
3545.053,-1.3203,8.0413,5.4121,-0.045456,-0.120987,0.065247,29.2328,-19.3649,-28.0518,0.000000,0.000000,0.0,0.00,0.0
3545.056,-1.2987,8.0556,5.4169,-0.048645,-0.119919,0.066315,29.2328,-19.3649,-28.0518,0.000000,0.000000,0.0,0.00,0.0
3545.059,-1.2029,8.1155,5.4480,-0.051849,-0.117783,0.065247,29.2328,-19.3649,-28.0518,0.000000,0.000000,0.0,0.00,0.0
3545.061,-1.1311,8.1035,5.4864,-0.040131,-0.120987,0.063126,29.2328,-19.3649,-28.0518,0.000000,0.000000,0.0,0.00,0.0
3545.063,-1.1407,8.0868,5.5318,-0.041199,-0.118851,0.064178,28.0029,-21.3516,-28.4027,0.000000,0.000000,0.0,0.00,0.0
3545.066,-1.2149,8.0700,5.5534,-0.042252,-0.122040,0.059921,28.0029,-21.3516,-28.4027,0.000000,0.000000,0.0,0.00,0.0
3545.069,-1.2508,8.0197,5.4911,-0.040131,-0.119919,0.056732,28.0029,-21.3516,-28.4027,0.000000,0.000000,0.0,0.00,0.0
3545.071,-1.3394,7.9958,5.4720,-0.041199,-0.112457,0.056732,28.0029,-21.3516,-28.4027,0.000000,0.000000,0.0,0.00,0.0
3545.074,-1.2987,8.0317,5.4528,-0.042252,-0.103943,0.058853,28.0029,-21.3516,-28.4027,0.000000,0.000000,0.0,0.00,0.0
3545.077,-1.2747,8.0484,5.4648,-0.043320,-0.101807,0.058853,28.0029,-21.3516,-28.4027,0.000000,0.000000,0.0,0.00,0.0
3545.078,-1.3107,8.0341,5.5438,-0.042252,-0.101807,0.059921,28.0029,-21.3516,-28.4027,0.000000,0.000000,0.0,0.00,0.0
3545.081,-1.3250,8.0437,5.5342,-0.041199,-0.099670,0.062057,28.0029,-21.3516,-28.4027,0.000000,0.000000,0.0,0.00,0.0
3545.083,-1.3083,8.0125,5.4864,-0.040131,-0.100739,0.063126,27.8519,-21.2021,-28.8574,0.000000,0.000000,0.0,0.00,0.0
3545.086,-1.2891,8.0221,5.4816,-0.037994,-0.102875,0.062057,27.8519,-21.2021,-28.8574,0.000000,0.000000,0.0,0.00,0.0
3545.089,-1.3011,8.0508,5.5079,-0.035873,-0.101807,0.060989,27.8519,-21.2021,-28.8574,0.000000,0.000000,0.0,0.00,0.0
3545.091,-1.3179,8.0341,5.4696,-0.036926,-0.102875,0.065247,27.8519,-21.2021,-28.8574,0.000000,0.000000,0.0,0.00,0.0
3545.095,-1.2843,8.0461,5.4864,-0.039063,-0.099670,0.066315,27.8519,-21.2021,-28.8574,0.000000,0.000000,0.0,0.00,0.0
3545.096,-1.2915,8.0676,5.5199,-0.036926,-0.095413,0.067383,27.8519,-21.2021,-28.8574,0.000000,0.000000,0.0,0.00,0.0
3545.099,-1.2771,8.0389,5.4935,-0.036926,-0.094345,0.070572,27.8519,-21.2021,-28.8574,0.000000,0.000000,0.0,0.00,0.0
3545.101,-1.3011,7.9886,5.5223,-0.041199,-0.091156,0.070572,27.8519,-21.2021,-28.8574,0.000000,0.000000,0.0,0.00,0.0
3545.104,-1.3681,7.9814,5.5366,-0.040131,-0.086884,0.070572,27.8610,-19.0750,-29.2664,0.000000,0.000000,0.0,0.00,0.0
3545.107,-1.3466,8.0101,5.5127,-0.037994,-0.089020,0.071640,27.8610,-19.0750,-29.2664,0.000000,0.000000,0.0,0.00,0.0
3545.109,-1.3490,7.9599,5.5486,-0.034805,-0.092224,0.076965,27.8610,-19.0750,-29.2664,0.000000,0.000000,0.0,0.00,0.0
3545.111,-1.3418,7.9671,5.5749,-0.027344,-0.093277,0.078033,27.8610,-19.0750,-29.2664,0.000000,0.000000,0.0,0.00,0.0
3545.114,-1.2987,7.9240,5.5845,-0.025208,-0.092224,0.080170,27.8610,-19.0750,-29.2664,0.000000,0.000000,0.0,0.00,0.0
3545.116,-1.2963,7.9192,5.6085,-0.025208,-0.086884,0.084427,27.8610,-19.0750,-29.2664,0.000000,0.000000,0.0,0.00,0.0
3545.119,-1.2125,7.9168,5.5821,-0.023087,-0.079437,0.086563,27.8610,-19.0750,-29.2664,0.000000,0.000000,0.0,0.00,0.0
3545.123,-1.1766,7.9287,5.5558,-0.024155,-0.070908,0.085495,27.8610,-19.0750,-29.2664,0.000000,0.000000,0.0,0.00,0.0
3545.123,-1.1479,7.8880,5.5151,-0.029480,-0.063461,0.082291,28.3173,-19.5236,-27.9037,0.000000,0.000000,0.0,0.00,0.0
3545.126,-1.1503,7.9120,5.4983,-0.024155,-0.051743,0.082291,28.3173,-19.5236,-27.9037,0.000000,0.000000,0.0,0.00,0.0
3545.129,-1.1503,7.8928,5.4241,-0.025208,-0.043213,0.081223,28.3173,-19.5236,-27.9037,0.000000,0.000000,0.0,0.00,0.0
3545.131,-1.1814,7.8976,5.4050,-0.026276,-0.041092,0.078033,28.3173,-19.5236,-27.9037,0.000000,0.000000,0.0,0.00,0.0
3545.135,-1.1191,7.9048,5.3954,-0.027344,-0.034698,0.074844,28.3173,-19.5236,-27.9037,0.000000,0.000000,0.0,0.00,0.0
3545.138,-1.0449,7.8809,5.3618,-0.028412,-0.028305,0.072708,28.3173,-19.5236,-27.9037,0.000000,0.000000,0.0,0.00,0.0
3545.139,-1.0712,7.8904,5.3427,-0.027344,-0.031494,0.068451,28.3173,-19.5236,-27.9037,0.000000,0.000000,0.0,0.00,0.0
3545.141,-1.1407,7.8833,5.3618,-0.031601,-0.034698,0.067383,28.3173,-19.5236,-27.9037,0.000000,0.000000,0.0,0.00,0.0
3545.145,-1.1550,7.8521,5.4193,-0.032669,-0.036819,0.062057,29.0833,-18.4570,-29.7089,0.000000,0.000000,0.0,0.00,0.0
3545.146,-1.0904,7.8042,5.3331,-0.029480,-0.036819,0.056732,29.0833,-18.4570,-29.7089,0.000000,0.000000,0.0,0.00,0.0
3545.149,-1.1526,7.8593,5.3978,-0.034805,-0.032562,0.054596,29.0833,-18.4570,-29.7089,0.000000,0.000000,0.0,0.00,0.0
3545.151,-1.1191,7.8473,5.4768,-0.036926,-0.033630,0.055664,29.0833,-18.4570,-29.7089,0.000000,0.000000,0.0,0.00,0.0
3545.155,-1.1431,7.8186,5.5175,-0.035873,-0.033630,0.053528,29.0833,-18.4570,-29.7089,0.000000,0.000000,0.0,0.00,0.0
3545.156,-1.1910,7.8641,5.5558,-0.033737,-0.035751,0.054596,29.0833,-18.4570,-29.7089,0.000000,0.000000,0.0,0.00,0.0
3545.159,-1.2221,7.8689,5.4935,-0.033737,-0.036819,0.052475,29.0833,-18.4570,-29.7089,0.000000,0.000000,0.0,0.00,0.0
3545.162,-1.2221,7.8521,5.5294,-0.034805,-0.034698,0.049271,29.0833,-18.4570,-29.7089,0.000000,0.000000,0.0,0.00,0.0
3545.164,-1.2532,7.8761,5.4911,-0.033737,-0.035751,0.052475,26.0223,-21.2189,-29.6219,0.000000,0.000000,0.0,0.00,0.0
3545.166,-1.2029,7.9383,5.4528,-0.031601,-0.033630,0.053528,26.0223,-21.2189,-29.6219,0.000000,0.000000,0.0,0.00,0.0
3545.169,-1.2436,7.9647,5.4864,-0.029480,-0.031494,0.054596,26.0223,-21.2189,-29.6219,0.000000,0.000000,0.0,0.00,0.0
3545.172,-1.3035,7.8880,5.4097,-0.029480,-0.034698,0.054596,26.0223,-21.2189,-29.6219,0.000000,0.000000,0.0,0.00,0.0
3545.174,-1.3179,7.9192,5.3690,-0.029480,-0.028305,0.056732,26.0223,-21.2189,-29.6219,0.000000,0.000000,0.0,0.00,0.0
3545.177,-1.2747,7.9455,5.3499,-0.033737,-0.022980,0.058853,26.0223,-21.2189,-29.6219,0.000000,0.000000,0.0,0.00,0.0
3545.179,-1.3322,7.8928,5.3666,-0.032669,-0.029373,0.060989,26.0223,-21.2189,-29.6219,0.000000,0.000000,0.0,0.00,0.0
3545.182,-1.3203,7.8689,5.3762,-0.030533,-0.035751,0.064178,26.0223,-21.2189,-29.6219,0.000000,0.000000,0.0,0.00,0.0
3545.185,-1.2724,7.8593,5.4289,-0.030533,-0.044281,0.066315,27.2614,-17.4072,-28.6194,0.000000,0.000000,0.0,0.00,0.0
3545.186,-1.2269,7.8282,5.5031,-0.029480,-0.051743,0.064178,27.2614,-17.4072,-28.6194,0.000000,0.000000,0.0,0.00,0.0
3545.189,-1.2628,7.8186,5.4480,-0.024155,-0.060257,0.064178,27.2614,-17.4072,-28.6194,0.000000,0.000000,0.0,0.00,0.0
3545.192,-1.2436,7.8593,5.4911,-0.023087,-0.059189,0.067383,27.2614,-17.4072,-28.6194,0.000000,0.000000,0.0,0.00,0.0
3545.195,-1.1790,7.8545,5.4768,-0.026276,-0.053864,0.064178,27.2614,-17.4072,-28.6194,0.000000,0.000000,0.0,0.00,0.0
3545.198,-1.1335,7.8234,5.4672,-0.031601,-0.049606,0.063126,27.2614,-17.4072,-28.6194,0.000000,0.000000,0.0,0.00,0.0
3545.199,-1.1287,7.9072,5.5725,-0.032669,-0.047470,0.060989,27.2614,-17.4072,-28.6194,0.000000,0.000000,0.0,0.00,0.0
3545.203,-1.1000,7.9048,5.5941,-0.030533,-0.045349,0.059921,26.1780,-20.3064,-30.2109,0.000000,0.000000,0.0,0.00,0.0
3545.205,-1.0904,7.8521,5.5486,-0.029480,-0.050674,0.059921,26.1780,-20.3064,-30.2109,0.000000,0.000000,0.0,0.00,0.0
3545.207,-1.1215,7.8521,5.5558,-0.026276,-0.050674,0.054596,26.1780,-20.3064,-30.2109,0.000000,0.000000,0.0,0.00,0.0
3545.209,-1.1455,7.8473,5.5199,-0.027344,-0.049606,0.050339,26.1780,-20.3064,-30.2109,0.000000,0.000000,0.0,0.00,0.0
3545.212,-1.1574,7.8928,5.5223,-0.027344,-0.045349,0.050339,26.1780,-20.3064,-30.2109,0.000000,0.000000,0.0,0.00,0.0
3545.215,-1.1503,7.9096,5.5462,-0.025208,-0.040024,0.048203,26.1780,-20.3064,-30.2109,0.000000,0.000000,0.0,0.00,0.0
3545.217,-1.1598,7.9551,5.5510,-0.025208,-0.035751,0.050339,26.1780,-20.3064,-30.2109,0.000000,0.000000,0.0,0.00,0.0
3545.220,-1.1048,7.9814,5.5582,-0.029480,-0.034698,0.050339,26.1780,-20.3064,-30.2109,0.000000,0.000000,0.0,0.00,0.0
3545.222,-1.1120,7.9671,5.6037,-0.030533,-0.031494,0.049271,28.3218,-18.4616,-28.6423,0.000000,0.000000,0.0,0.00,0.0
3545.224,-1.1167,8.0125,5.6085,-0.027344,-0.030426,0.046082,28.3218,-18.4616,-28.6423,0.000000,0.000000,0.0,0.00,0.0
3545.227,-1.0832,8.0293,5.6252,-0.026276,-0.028305,0.043945,28.3218,-18.4616,-28.6423,0.000000,0.000000,0.0,0.00,0.0
3545.230,-1.1335,7.9790,5.6037,-0.027344,-0.027237,0.043945,28.3218,-18.4616,-28.6423,0.000000,0.000000,0.0,0.00,0.0
3545.232,-1.1191,8.0030,5.5893,-0.026276,-0.028305,0.045013,28.3218,-18.4616,-28.6423,0.000000,0.000000,0.0,0.00,0.0
3545.234,-1.0617,7.9790,5.5893,-0.026276,-0.029373,0.041809,28.3218,-18.4616,-28.6423,0.000000,0.000000,0.0,0.00,0.0
3545.237,-1.0688,8.0078,5.6037,-0.025208,-0.025101,0.038620,28.3218,-18.4616,-28.6423,0.000000,0.000000,0.0,0.00,0.0
3545.240,-1.0473,7.9599,5.5797,-0.020950,-0.025101,0.039688,28.3218,-18.4616,-28.6423,0.000000,0.000000,0.0,0.00,0.0
3545.242,-1.0162,7.9431,5.5630,-0.022018,-0.029373,0.037552,28.6163,-20.1340,-30.3574,0.000000,0.000000,0.0,0.00,0.0
3545.245,-0.9827,7.9694,5.5558,-0.020950,-0.025101,0.035431,28.6163,-20.1340,-30.3574,0.000000,0.000000,0.0,0.00,0.0
3545.248,-0.9875,7.9503,5.4935,-0.025208,-0.026169,0.031158,28.6163,-20.1340,-30.3574,0.000000,0.000000,0.0,0.00,0.0
3545.250,-0.9539,7.9407,5.5677,-0.026276,-0.029373,0.027969,28.6163,-20.1340,-30.3574,0.000000,0.000000,0.0,0.00,0.0
3545.252,-1.0138,7.9383,5.5630,-0.026276,-0.033630,0.023712,28.6163,-20.1340,-30.3574,0.000000,0.000000,0.0,0.00,0.0
3545.255,-1.0473,7.8833,5.5366,-0.023087,-0.034698,0.019440,28.6163,-20.1340,-30.3574,0.000000,0.000000,0.0,0.00,0.0
3545.257,-1.0162,7.8641,5.5486,-0.025208,-0.034698,0.018387,28.6163,-20.1340,-30.3574,0.000000,0.000000,0.0,0.00,0.0
3545.260,-0.9803,7.8833,5.5654,-0.029480,-0.040024,0.016251,28.6163,-20.1340,-30.3574,0.000000,0.000000,0.0,0.00,0.0
3545.262,-0.9851,7.9168,5.5534,-0.026276,-0.043213,0.010925,28.0045,-20.5978,-31.5887,0.000000,0.000000,0.0,0.00,0.0
3545.265,-0.9731,7.9120,5.5869,-0.027344,-0.042145,0.007721,28.0045,-20.5978,-31.5887,0.000000,0.000000,0.0,0.00,0.0
3545.267,-1.0329,7.9216,5.6539,-0.029480,-0.040024,0.006668,28.0045,-20.5978,-31.5887,0.000000,0.000000,0.0,0.00,0.0
3545.271,-1.0736,7.9048,5.6707,-0.026276,-0.035751,0.003464,28.0045,-20.5978,-31.5887,0.000000,0.000000,0.0,0.00,0.0
3545.273,-1.0473,7.9024,5.6348,-0.028412,-0.030426,0.003464,28.0045,-20.5978,-31.5887,0.000000,0.000000,0.0,0.00,0.0
3545.276,-1.0521,7.9096,5.6156,-0.028412,-0.027237,0.001343,28.0045,-20.5978,-31.5887,0.000000,0.000000,0.0,0.00,0.0
3545.277,-1.0593,7.9287,5.6875,-0.024155,-0.022980,0.002396,28.0045,-20.5978,-31.5887,0.000000,0.000000,0.0,0.00,0.0
3545.279,-1.0952,7.9694,5.6755,-0.019882,-0.022980,0.002396,28.0045,-20.5978,-31.5887,0.000000,0.000000,0.0,0.00,0.0
3545.282,-1.0928,7.9958,5.6587,-0.019882,-0.018707,0.003464,28.0167,-18.4662,-29.7104,0.000000,0.000000,0.0,0.00,0.0
3545.285,-1.1239,7.9551,5.6755,-0.017761,-0.009125,0.002396,28.0167,-18.4662,-29.7104,0.000000,0.000000,0.0,0.00,0.0
3545.288,-1.0928,7.9263,5.6851,-0.016693,-0.003799,0.001343,28.0167,-18.4662,-29.7104,0.000000,0.000000,0.0,0.00,0.0
3545.290,-1.1311,7.9527,5.6396,-0.015625,0.001526,0.002396,28.0167,-18.4662,-29.7104,0.000000,0.000000,0.0,0.00,0.0
3545.293,-1.1574,7.9503,5.6635,-0.015625,0.007919,0.002396,28.0167,-18.4662,-29.7104,0.000000,0.000000,0.0,0.00,0.0
3545.297,-1.1910,7.9311,5.6109,-0.014557,0.008987,0.002396,28.0167,-18.4662,-29.7104,0.000000,0.000000,0.0,0.00,0.0
3545.298,-1.2077,7.8976,5.6013,-0.014557,0.010056,0.003464,28.0167,-18.4662,-29.7104,0.000000,0.000000,0.0,0.00,0.0
3545.300,-1.2436,7.8761,5.5749,-0.014557,0.007919,0.007721,28.0167,-18.4662,-29.7104,0.000000,0.000000,0.0,0.00,0.0
3545.302,-1.1981,7.8665,5.5558,-0.010300,0.003662,0.009857,27.7069,-19.5313,-28.9719,0.000000,0.000000,0.0,0.00,0.0
3545.305,-1.1862,7.8785,5.5294,-0.008163,-0.002731,0.011993,27.7069,-19.5313,-28.9719,0.000000,0.000000,0.0,0.00,0.0
3545.308,-1.2029,7.8713,5.4983,-0.009232,-0.008057,0.015182,27.7069,-19.5313,-28.9719,0.000000,0.000000,0.0,0.00,0.0
3545.310,-1.1910,7.8665,5.5199,-0.008163,-0.010193,0.016251,27.7069,-19.5313,-28.9719,0.000000,0.000000,0.0,0.00,0.0
3545.313,-1.1526,7.8617,5.5414,-0.007111,-0.017654,0.019440,27.7069,-19.5313,-28.9719,0.000000,0.000000,0.0,0.00,0.0
3545.315,-1.1646,7.8617,5.5199,-0.002838,-0.018707,0.018387,27.7069,-19.5313,-28.9719,0.000000,0.000000,0.0,0.00,0.0
3545.317,-1.1742,7.8928,5.5294,-0.003906,-0.019775,0.019440,27.7069,-19.5313,-28.9719,0.000000,0.000000,0.0,0.00,0.0
3545.320,-1.1000,7.8976,5.5151,-0.001770,-0.024048,0.020508,27.7069,-19.5313,-28.9719,0.000000,0.000000,0.0,0.00,0.0
3545.322,-1.0449,7.9168,5.5294,-0.000717,-0.027237,0.020508,26.0269,-20.4575,-28.8422,0.000000,0.000000,0.0,0.00,0.0
3545.325,-1.0641,7.9144,5.5510,0.002487,-0.027237,0.022644,26.0269,-20.4575,-28.8422,0.000000,0.000000,0.0,0.00,0.0
3545.328,-1.0665,7.9527,5.5247,0.002487,-0.024048,0.020508,26.0269,-20.4575,-28.8422,0.000000,0.000000,0.0,0.00,0.0
3545.331,-1.0329,7.9431,5.5175,0.000351,-0.021912,0.019440,26.0269,-20.4575,-28.8422,0.000000,0.000000,0.0,0.00,0.0
3545.332,-1.0641,7.9862,5.5079,-0.000717,-0.022980,0.017319,26.0269,-20.4575,-28.8422,0.000000,0.000000,0.0,0.00,0.0
3545.335,-1.0449,7.9599,5.4720,-0.007111,-0.017654,0.017319,26.0269,-20.4575,-28.8422,0.000000,0.000000,0.0,0.00,0.0
3545.337,-1.0282,7.9599,5.4696,-0.009232,-0.012329,0.013046,26.0269,-20.4575,-28.8422,0.000000,0.000000,0.0,0.00,0.0
3545.340,-1.0641,7.9599,5.4576,-0.010300,-0.013382,0.011993,26.0269,-20.4575,-28.8422,0.000000,0.000000,0.0,0.00,0.0
3545.342,-1.0617,7.9431,5.4648,-0.014557,-0.012329,0.010925,26.9531,-17.7155,-29.3900,0.000000,0.000000,0.0,0.00,0.0
3545.345,-1.0904,7.9192,5.4097,-0.018829,-0.009125,0.004532,26.9531,-17.7155,-29.3900,0.000000,0.000000,0.0,0.00,0.0
3545.348,-1.0928,7.9694,5.3786,-0.019882,-0.010193,0.001343,26.9531,-17.7155,-29.3900,0.000000,0.000000,0.0,0.00,0.0
3545.350,-1.1239,7.9551,5.3523,-0.024155,-0.012329,-0.000793,26.9531,-17.7155,-29.3900,0.000000,0.000000,0.0,0.00,0.0
3545.353,-1.1622,8.0030,5.3547,-0.029480,-0.015518,-0.001862,26.9531,-17.7155,-29.3900,0.000000,0.000000,0.0,0.00,0.0
3545.355,-1.1167,7.9790,5.3930,-0.032669,-0.014450,-0.001862,26.9531,-17.7155,-29.3900,0.000000,0.000000,0.0,0.00,0.0
3545.357,-1.1311,7.9718,5.3930,-0.036926,-0.018707,-0.003998,26.9531,-17.7155,-29.3900,0.000000,0.000000,0.0,0.00,0.0
3545.360,-1.1622,7.9718,5.3714,-0.041199,-0.025101,-0.005051,26.9531,-17.7155,-29.3900,0.000000,0.000000,0.0,0.00,0.0
3545.362,-1.1646,7.9694,5.4097,-0.042252,-0.025101,-0.005051,27.1011,-18.6279,-30.3253,0.000000,0.000000,0.0,0.00,0.0
3545.366,-1.1886,7.9383,5.4624,-0.043320,-0.036819,-0.007187,27.1011,-18.6279,-30.3253,0.000000,0.000000,0.0,0.00,0.0
3545.368,-1.1479,7.9311,5.5223,-0.045456,-0.038956,-0.007187,27.1011,-18.6279,-30.3253,0.000000,0.000000,0.0,0.00,0.0
3545.371,-1.1814,7.9311,5.5486,-0.047577,-0.034698,-0.009323,27.1011,-18.6279,-30.3253,0.000000,0.000000,0.0,0.00,0.0
3545.373,-1.1957,7.9407,5.5390,-0.048645,-0.036819,-0.008255,27.1011,-18.6279,-30.3253,0.000000,0.000000,0.0,0.00,0.0
3545.375,-1.1455,7.9311,5.5606,-0.048645,-0.036819,-0.007187,27.1011,-18.6279,-30.3253,0.000000,0.000000,0.0,0.00,0.0
3545.379,-1.1359,7.9192,5.5965,-0.047577,-0.036819,-0.008255,27.1011,-18.6279,-30.3253,0.000000,0.000000,0.0,0.00,0.0
3545.380,-1.1287,7.9407,5.5989,-0.047577,-0.038956,-0.009323,27.1011,-18.6279,-30.3253,0.000000,0.000000,0.0,0.00,0.0
3545.383,-1.1096,7.9551,5.6252,-0.048645,-0.033630,-0.009323,27.7069,-19.2291,-30.1849,0.000000,0.000000,0.0,0.00,0.0
3545.385,-1.0976,7.9311,5.5845,-0.046524,-0.030426,-0.011444,27.7069,-19.2291,-30.1849,0.000000,0.000000,0.0,0.00,0.0
3545.389,-1.1407,7.9192,5.6779,-0.043320,-0.027237,-0.011444,27.7069,-19.2291,-30.1849,0.000000,0.000000,0.0,0.00,0.0
3545.390,-1.1598,7.9120,5.6851,-0.042252,-0.025101,-0.012512,27.7069,-19.2291,-30.1849,0.000000,0.000000,0.0,0.00,0.0
3545.394,-1.1934,7.9551,5.6420,-0.037994,-0.020844,-0.013580,27.7069,-19.2291,-30.1849,0.000000,0.000000,0.0,0.00,0.0
3545.396,-1.2221,7.9311,5.6707,-0.036926,-0.020844,-0.014648,27.7069,-19.2291,-30.1849,0.000000,0.000000,0.0,0.00,0.0
3545.398,-1.2293,7.9359,5.7162,-0.036926,-0.015518,-0.013580,27.7069,-19.2291,-30.1849,0.000000,0.000000,0.0,0.00,0.0
3545.401,-1.2245,7.9431,5.7138,-0.036926,-0.011261,-0.013580,27.7069,-19.2291,-30.1849,0.000000,0.000000,0.0,0.00,0.0
3545.403,-1.2412,7.9287,5.6228,-0.032669,-0.003799,-0.008255,26.4877,-19.2398,-30.1865,0.000000,0.000000,0.0,0.00,0.0
3545.405,-1.2053,7.9263,5.6085,-0.028412,-0.001663,-0.011444,26.4877,-19.2398,-30.1865,0.000000,0.000000,0.0,0.00,0.0
3545.408,-1.2197,7.9527,5.6539,-0.024155,0.001526,-0.010376,26.4877,-19.2398,-30.1865,0.000000,0.000000,0.0,0.00,0.0
3545.411,-1.2508,7.9503,5.6372,-0.025208,0.002594,-0.008255,26.4877,-19.2398,-30.1865,0.000000,0.000000,0.0,0.00,0.0
3545.413,-1.2436,7.9503,5.6372,-0.024155,0.001526,-0.005051,26.4877,-19.2398,-30.1865,0.000000,0.000000,0.0,0.00,0.0
3545.416,-1.1934,7.9311,5.5893,-0.024155,0.003662,-0.006119,26.4877,-19.2398,-30.1865,0.000000,0.000000,0.0,0.00,0.0
3545.418,-1.2532,8.0006,5.6013,-0.020950,0.001526,-0.005051,26.4877,-19.2398,-30.1865,0.000000,0.000000,0.0,0.00,0.0
3545.421,-1.2724,7.9982,5.6348,-0.014557,-0.004868,-0.002930,26.4877,-19.2398,-30.1865,0.000000,0.000000,0.0,0.00,0.0
3545.423,-1.2532,7.9431,5.5749,-0.015625,-0.003799,-0.002930,26.9409,-20.2972,-28.9902,0.000000,0.000000,0.0,0.00,0.0
3545.427,-1.2771,7.9216,5.5271,-0.014557,-0.003799,-0.001862,26.9409,-20.2972,-28.9902,0.000000,0.000000,0.0,0.00,0.0
3545.429,-1.2412,7.9407,5.4983,-0.012436,-0.002731,0.000275,26.9409,-20.2972,-28.9902,0.000000,0.000000,0.0,0.00,0.0
3545.431,-1.2628,7.9599,5.5486,-0.011368,-0.005936,0.002396,26.9409,-20.2972,-28.9902,0.000000,0.000000,0.0,0.00,0.0
3545.433,-1.3035,7.9192,5.4840,-0.012436,-0.011261,0.002396,26.9409,-20.2972,-28.9902,0.000000,0.000000,0.0,0.00,0.0
3545.436,-1.2365,7.8952,5.4887,-0.012436,-0.014450,0.003464,26.9409,-20.2972,-28.9902,0.000000,0.000000,0.0,0.00,0.0
3545.438,-1.2317,7.9216,5.5294,-0.012436,-0.016586,0.005600,26.9409,-20.2972,-28.9902,0.000000,0.000000,0.0,0.00,0.0
3545.441,-1.2077,7.9766,5.4959,-0.013489,-0.022980,0.007721,26.9409,-20.2972,-28.9902,0.000000,0.000000,0.0,0.00,0.0
3545.443,-1.2125,7.9623,5.5390,-0.014557,-0.025101,0.008789,26.9409,-19.9982,-31.2714,0.000000,0.000000,0.0,0.00,0.0
3545.446,-1.1742,7.9311,5.5175,-0.015625,-0.028305,0.006668,26.9409,-19.9982,-31.2714,0.000000,0.000000,0.0,0.00,0.0
3545.449,-1.1910,7.9431,5.4720,-0.015625,-0.030426,0.007721,26.9409,-19.9982,-31.2714,0.000000,0.000000,0.0,0.00,0.0
3545.451,-1.1886,7.9168,5.4840,-0.017761,-0.035751,0.008789,26.9409,-19.9982,-31.2714,0.000000,0.000000,0.0,0.00,0.0
3545.455,-1.1526,7.9623,5.5175,-0.018829,-0.036819,0.006668,26.9409,-19.9982,-31.2714,0.000000,0.000000,0.0,0.00,0.0
3545.456,-1.1311,7.9000,5.5055,-0.017761,-0.044281,0.006668,26.9409,-19.9982,-31.2714,0.000000,0.000000,0.0,0.00,0.0
3545.459,-1.2005,7.9144,5.5007,-0.020950,-0.044281,0.005600,26.9409,-19.9982,-31.2714,0.000000,0.000000,0.0,0.00,0.0
3545.461,-1.2029,7.9048,5.4959,-0.022018,-0.044281,0.006668,26.9409,-19.9982,-31.2714,0.000000,0.000000,0.0,0.00,0.0
3545.463,-1.1814,7.9383,5.5893,-0.017761,-0.048538,0.007721,27.0828,-21.9727,-31.4682,0.000000,0.000000,0.0,0.00,0.0
3545.466,-1.1479,7.9551,5.6923,-0.017761,-0.045349,0.009857,27.0828,-21.9727,-31.4682,0.000000,0.000000,0.0,0.00,0.0
3545.469,-1.1191,7.9479,5.6970,-0.018829,-0.044281,0.010925,27.0828,-21.9727,-31.4682,0.000000,0.000000,0.0,0.00,0.0
3545.471,-1.0856,7.9982,5.7497,-0.014557,-0.038956,0.009857,27.0828,-21.9727,-31.4682,0.000000,0.000000,0.0,0.00,0.0
3545.473,-1.0377,7.9623,5.7449,-0.012436,-0.029373,0.008789,27.0828,-21.9727,-31.4682,0.000000,0.000000,0.0,0.00,0.0
3545.476,-1.0401,7.9766,5.7521,-0.010300,-0.024048,0.008789,27.0828,-21.9727,-31.4682,0.000000,0.000000,0.0,0.00,0.0
3545.479,-1.0162,7.9814,5.7306,-0.006042,-0.020844,0.005600,27.0828,-21.9727,-31.4682,0.000000,0.000000,0.0,0.00,0.0
3545.481,-1.0425,7.9910,5.7449,-0.006042,-0.012329,0.002396,27.0828,-21.9727,-31.4682,0.000000,0.000000,0.0,0.00,0.0
3545.483,-1.0832,7.9503,5.7497,-0.000717,-0.004868,0.003464,27.7100,-19.2261,-28.3554,0.000000,0.000000,0.0,0.00,0.0
3545.486,-1.1335,7.9072,5.7258,0.000351,-0.000610,-0.000793,27.7100,-19.2261,-28.3554,0.000000,0.000000,0.0,0.00,0.0
3545.489,-1.1957,7.9263,5.6779,-0.001770,0.003662,-0.001862,27.7100,-19.2261,-28.3554,0.000000,0.000000,0.0,0.00,0.0
3545.491,-1.1718,7.9263,5.6085,0.003555,0.010056,0.000275,27.7100,-19.2261,-28.3554,0.000000,0.000000,0.0,0.00,0.0
3545.495,-1.1934,7.9192,5.4959,0.005676,0.007919,0.000275,27.7100,-19.2261,-28.3554,0.000000,0.000000,0.0,0.00,0.0
3545.497,-1.1622,7.8976,5.5247,0.008881,0.007919,0.004532,27.7100,-19.2261,-28.3554,0.000000,0.000000,0.0,0.00,0.0
3545.499,-1.1670,7.8880,5.4887,0.008881,0.003662,0.006668,27.7100,-19.2261,-28.3554,0.000000,0.000000,0.0,0.00,0.0
3545.501,-1.1574,7.9431,5.5007,0.007813,0.001526,0.006668,27.7100,-19.2261,-28.3554,0.000000,0.000000,0.0,0.00,0.0
3545.504,-1.1431,7.9383,5.5318,0.007813,-0.005936,0.009857,26.7944,-19.0842,-29.8782,0.000000,0.000000,0.0,0.00,0.0
3545.506,-1.1335,7.9383,5.4959,0.004608,-0.011261,0.010925,26.7944,-19.0842,-29.8782,0.000000,0.000000,0.0,0.00,0.0
3545.509,-1.1167,7.9335,5.5558,0.005676,-0.016586,0.009857,26.7944,-19.0842,-29.8782,0.000000,0.000000,0.0,0.00,0.0
3545.512,-1.0976,7.9551,5.5199,0.003555,-0.019775,0.008789,26.7944,-19.0842,-29.8782,0.000000,0.000000,0.0,0.00,0.0
3545.514,-1.1455,7.9479,5.5390,0.002487,-0.020844,0.007721,26.7944,-19.0842,-29.8782,0.000000,0.000000,0.0,0.00,0.0
3545.518,-1.1526,7.8809,5.4959,0.000351,-0.021912,0.006668,26.7944,-19.0842,-29.8782,0.000000,0.000000,0.0,0.00,0.0
3545.519,-1.1694,7.9072,5.4935,-0.002838,-0.026169,0.006668,26.7944,-19.0842,-29.8782,0.000000,0.000000,0.0,0.00,0.0
3545.522,-1.1790,7.9048,5.5773,0.002487,-0.032562,0.007721,26.7944,-19.0842,-29.8782,0.000000,0.000000,0.0,0.00,0.0
3545.524,-1.1598,7.8857,5.6180,0.001419,-0.030426,0.007721,28.1540,-21.2036,-31.4499,0.000000,0.000000,0.0,0.00,0.0
3545.526,-1.1574,7.8785,5.6420,0.000351,-0.028305,0.007721,28.1540,-21.2036,-31.4499,0.000000,0.000000,0.0,0.00,0.0
3545.529,-1.1143,7.9359,5.6037,0.001419,-0.029373,0.011993,28.1540,-21.2036,-31.4499,0.000000,0.000000,0.0,0.00,0.0
3545.532,-1.1359,7.9096,5.6180,0.001419,-0.030426,0.011993,28.1540,-21.2036,-31.4499,0.000000,0.000000,0.0,0.00,0.0
3545.534,-1.1479,7.9335,5.6013,0.001419,-0.028305,0.010925,28.1540,-21.2036,-31.4499,0.000000,0.000000,0.0,0.00,0.0
3545.536,-1.1120,7.9407,5.6252,0.002487,-0.024048,0.013046,28.1540,-21.2036,-31.4499,0.000000,0.000000,0.0,0.00,0.0
3545.539,-1.1048,7.9311,5.5821,0.004608,-0.020844,0.014114,28.1540,-21.2036,-31.4499,0.000000,0.000000,0.0,0.00,0.0
3545.542,-1.1215,7.9694,5.6013,0.004608,-0.020844,0.013046,28.3157,-19.5282,-29.7348,0.000000,0.000000,0.0,0.00,0.0
3545.544,-1.1072,7.9407,5.5965,0.002487,-0.015518,0.013046,28.3157,-19.5282,-29.7348,0.000000,0.000000,0.0,0.00,0.0
3545.547,-1.0784,7.9096,5.5773,0.003555,-0.013382,0.015182,28.3157,-19.5282,-29.7348,0.000000,0.000000,0.0,0.00,0.0
3545.549,-1.0976,7.9263,5.5654,0.001419,-0.014450,0.014114,28.3157,-19.5282,-29.7348,0.000000,0.000000,0.0,0.00,0.0
3545.551,-1.0952,7.9263,5.5271,0.004608,-0.011261,0.011993,28.3157,-19.5282,-29.7348,0.000000,0.000000,0.0,0.00,0.0
3545.555,-1.0760,7.9120,5.5366,0.003555,-0.008057,0.011993,28.3157,-19.5282,-29.7348,0.000000,0.000000,0.0,0.00,0.0
3545.557,-1.0832,7.9335,5.5247,0.000351,-0.004868,0.009857,28.3157,-19.5282,-29.7348,0.000000,0.000000,0.0,0.00,0.0
3545.559,-1.0808,7.9192,5.5821,-0.000717,-0.007004,0.009857,28.3157,-19.5282,-29.7348,0.000000,0.000000,0.0,0.00,0.0
3545.561,-1.1120,7.8401,5.6587,-0.000717,-0.001663,0.009857,26.9470,-18.4784,-31.2363,0.000000,0.000000,0.0,0.00,0.0
3545.564,-1.1048,7.8737,5.6300,-0.001770,0.001526,0.005600,26.9470,-18.4784,-31.2363,0.000000,0.000000,0.0,0.00,0.0
3545.567,-1.1048,7.9144,5.6683,-0.001770,0.005783,0.006668,26.9470,-18.4784,-31.2363,0.000000,0.000000,0.0,0.00,0.0
3545.569,-1.1383,7.9144,5.6252,-0.002838,0.010056,0.005600,26.9470,-18.4784,-31.2363,0.000000,0.000000,0.0,0.00,0.0
3545.572,-1.1598,7.9024,5.5749,-0.003906,0.011108,0.005600,26.9470,-18.4784,-31.2363,0.000000,0.000000,0.0,0.00,0.0
3545.575,-1.1694,7.9120,5.6228,-0.003906,0.017502,0.004532,26.9470,-18.4784,-31.2363,0.000000,0.000000,0.0,0.00,0.0
3545.577,-1.1694,7.8857,5.5821,-0.004974,0.021759,0.003464,26.9470,-18.4784,-31.2363,0.000000,0.000000,0.0,0.00,0.0
3545.580,-1.1503,7.8617,5.5558,-0.002838,0.026031,0.006668,26.9470,-18.4784,-31.2363,0.000000,0.000000,0.0,0.00,0.0
3545.582,-1.1814,7.8593,5.4672,-0.004974,0.024963,0.006668,26.9470,-18.4784,-31.2363,0.000000,0.000000,0.0,0.00,0.0
3545.584,-1.2077,7.9024,5.4456,-0.003906,0.018570,0.007721,26.9470,-18.4784,-31.2363,0.000000,0.000000,0.0,0.00,0.0
3545.587,-1.1838,7.9263,5.4624,-0.000717,0.015381,0.009857,26.9470,-18.4784,-31.2363,0.000000,0.000000,0.0,0.00,0.0
3545.589,-1.1862,7.9359,5.5151,-0.006042,0.010056,0.011993,26.9470,-18.4784,-31.2363,0.000000,0.000000,0.0,0.00,0.0
3545.592,-1.1359,7.9168,5.5103,-0.007111,0.011108,0.008789,26.9470,-18.4784,-31.2363,0.000000,0.000000,0.0,0.00,0.0
3545.595,-1.1479,7.9671,5.4433,-0.006042,0.011108,0.010925,26.9470,-18.4784,-31.2363,0.000000,0.000000,0.0,0.00,0.0
3545.597,-1.1598,7.9431,5.3978,-0.009232,0.011108,0.009857,26.9470,-18.4784,-31.2363,0.000000,0.000000,0.0,0.00,0.0
3545.600,-1.1455,7.9551,5.4073,-0.009232,0.011108,0.008789,26.9470,-18.4784,-31.2363,0.000000,0.000000,0.0,0.00,0.0
3545.602,-1.1431,7.9072,5.4313,-0.013489,0.008987,0.011993,26.3351,-19.6945,-28.5202,0.000000,0.000000,0.0,0.00,0.0
3545.605,-1.1335,7.9407,5.4528,-0.015625,0.002594,0.010925,26.3351,-19.6945,-28.5202,0.000000,0.000000,0.0,0.00,0.0
3545.607,-1.1598,7.9120,5.4792,-0.015625,0.004715,0.009857,26.3351,-19.6945,-28.5202,0.000000,0.000000,0.0,0.00,0.0
3545.609,-1.1239,7.9168,5.4289,-0.019882,0.000458,0.008789,26.3351,-19.6945,-28.5202,0.000000,0.000000,0.0,0.00,0.0
3545.612,-1.1167,7.9335,5.4456,-0.020950,0.000458,0.006668,26.3351,-19.6945,-28.5202,0.000000,0.000000,0.0,0.00,0.0
3545.615,-1.0928,7.9072,5.4289,-0.024155,-0.005936,0.005600,26.3351,-19.6945,-28.5202,0.000000,0.000000,0.0,0.00,0.0
3545.617,-1.0808,7.8904,5.4409,-0.025208,-0.010193,0.003464,26.3351,-19.6945,-28.5202,0.000000,0.000000,0.0,0.00,0.0
3545.620,-1.0952,7.8833,5.5414,-0.025208,-0.012329,0.001343,26.3351,-19.6945,-28.5202,0.000000,0.000000,0.0,0.00,0.0
3545.622,-1.1072,7.9407,5.6156,-0.025208,-0.017654,0.002396,26.3382,-19.0842,-28.0487,0.000000,0.000000,0.0,0.00,0.0
3545.625,-1.1407,7.8737,5.6755,-0.026276,-0.015518,0.001343,26.3382,-19.0842,-28.0487,0.000000,0.000000,0.0,0.00,0.0
3545.627,-1.1431,7.9048,5.6683,-0.023087,-0.013382,0.001343,26.3382,-19.0842,-28.0487,0.000000,0.000000,0.0,0.00,0.0
3545.630,-1.1383,7.9240,5.6659,-0.022018,-0.012329,0.003464,26.3382,-19.0842,-28.0487,0.000000,0.000000,0.0,0.00,0.0
3545.632,-1.1431,7.9575,5.6372,-0.019882,-0.010193,0.002396,26.3382,-19.0842,-28.0487,0.000000,0.000000,0.0,0.00,0.0
3545.635,-1.1598,7.9982,5.6563,-0.017761,-0.003799,0.004532,26.3382,-19.0842,-28.0487,0.000000,0.000000,0.0,0.00,0.0
3545.637,-1.1287,7.9192,5.6180,-0.013489,-0.004868,0.004532,26.3382,-19.0842,-28.0487,0.000000,0.000000,0.0,0.00,0.0
3545.640,-1.1096,7.8928,5.5917,-0.012436,-0.004868,0.004532,26.3382,-19.0842,-28.0487,0.000000,0.000000,0.0,0.00,0.0
3545.642,-1.1670,7.9718,5.5725,-0.014557,0.000458,0.005600,26.0208,-21.2204,-30.3848,0.000000,0.000000,0.0,0.00,0.0
3545.645,-1.1048,7.9814,5.6420,-0.009232,-0.002731,0.008789,26.0208,-21.2204,-30.3848,0.000000,0.000000,0.0,0.00,0.0
3545.647,-1.1120,7.9359,5.5917,-0.003906,-0.003799,0.008789,26.0208,-21.2204,-30.3848,0.000000,0.000000,0.0,0.00,0.0
3545.650,-1.1072,7.9455,5.5438,-0.001770,-0.005936,0.007721,26.0208,-21.2204,-30.3848,0.000000,0.000000,0.0,0.00,0.0
3545.652,-1.0880,7.9575,5.5558,-0.001770,-0.005936,0.008789,26.0208,-21.2204,-30.3848,0.000000,0.000000,0.0,0.00,0.0
3545.655,-1.0976,7.9766,5.5366,0.000351,-0.009125,0.007721,26.0208,-21.2204,-30.3848,0.000000,0.000000,0.0,0.00,0.0
3545.657,-1.0617,7.9694,5.5462,-0.000717,-0.004868,0.007721,26.0208,-21.2204,-30.3848,0.000000,0.000000,0.0,0.00,0.0
3545.660,-1.0641,8.0054,5.5294,-0.002838,-0.009125,0.007721,26.0208,-21.2204,-30.3848,0.000000,0.000000,0.0,0.00,0.0
3545.662,-1.1072,8.0101,5.5845,-0.004974,-0.012329,0.006668,26.0193,-21.5256,-31.0013,0.000000,0.000000,0.0,0.00,0.0
3545.665,-1.0976,7.9694,5.5438,-0.003906,-0.014450,0.005600,26.0193,-21.5256,-31.0013,0.000000,0.000000,0.0,0.00,0.0
3545.668,-1.1000,7.9599,5.5749,-0.004974,-0.018707,0.005600,26.0193,-21.5256,-31.0013,0.000000,0.000000,0.0,0.00,0.0
3545.669,-1.0736,7.9599,5.5749,-0.009232,-0.019775,0.002396,26.0193,-21.5256,-31.0013,0.000000,0.000000,0.0,0.00,0.0
3545.673,-1.1096,7.9766,5.6037,-0.013489,-0.019775,0.001343,26.0193,-21.5256,-31.0013,0.000000,0.000000,0.0,0.00,0.0
3545.676,-1.1000,7.9790,5.6875,-0.012436,-0.022980,0.002396,26.0193,-21.5256,-31.0013,0.000000,0.000000,0.0,0.00,0.0
3545.677,-1.1622,7.9551,5.6611,-0.012436,-0.024048,0.003464,26.0193,-21.5256,-31.0013,0.000000,0.000000,0.0,0.00,0.0
3545.680,-1.1335,7.9287,5.6707,-0.012436,-0.020844,0.001343,26.0193,-21.5256,-31.0013,0.000000,0.000000,0.0,0.00,0.0
3545.682,-1.1311,7.8880,5.6875,-0.014557,-0.025101,-0.000793,27.7023,-20.5948,-28.9963,0.000000,0.000000,0.0,0.00,0.0
3545.685,-1.1742,7.9240,5.6516,-0.014557,-0.025101,0.001343,27.7023,-20.5948,-28.9963,0.000000,0.000000,0.0,0.00,0.0
3545.688,-1.1526,7.9144,5.6970,-0.013489,-0.026169,0.002396,27.7023,-20.5948,-28.9963,0.000000,0.000000,0.0,0.00,0.0
3545.690,-1.1455,7.9311,5.7090,-0.009232,-0.022980,0.004532,27.7023,-20.5948,-28.9963,0.000000,0.000000,0.0,0.00,0.0
3545.693,-1.0808,7.9192,5.6970,-0.007111,-0.018707,0.005600,27.7023,-20.5948,-28.9963,0.000000,0.000000,0.0,0.00,0.0
3545.695,-1.1096,7.9886,5.7018,-0.007111,-0.011261,0.004532,27.7023,-20.5948,-28.9963,0.000000,0.000000,0.0,0.00,0.0
3545.697,-1.0976,7.9383,5.7593,-0.002838,-0.010193,0.006668,27.7023,-20.5948,-28.9963,0.000000,0.000000,0.0,0.00,0.0
3545.700,-1.0880,7.9383,5.7282,-0.000717,-0.010193,0.005600,27.7023,-20.5948,-28.9963,0.000000,0.000000,0.0,0.00,0.0
3545.703,-1.0880,7.9455,5.6563,0.000351,-0.002731,0.007721,28.0090,-19.9860,-29.7455,0.000000,0.000000,0.0,0.00,0.0
3545.705,-1.1239,7.8976,5.7090,0.001419,-0.001663,0.007721,28.0090,-19.9860,-29.7455,0.000000,0.000000,0.0,0.00,0.0
3545.708,-1.1287,7.9096,5.6228,0.006744,0.002594,0.005600,28.0090,-19.9860,-29.7455,0.000000,0.000000,0.0,0.00,0.0
3545.710,-1.1335,7.8952,5.6133,0.006744,0.005783,0.006668,28.0090,-19.9860,-29.7455,0.000000,0.000000,0.0,0.00,0.0
3545.713,-1.1838,7.9240,5.6133,0.007813,0.007919,0.006668,28.0090,-19.9860,-29.7455,0.000000,0.000000,0.0,0.00,0.0
3545.715,-1.1574,7.9000,5.5749,0.009933,0.008987,0.006668,28.0090,-19.9860,-29.7455,0.000000,0.000000,0.0,0.00,0.0
3545.718,-1.1024,7.8761,5.5773,0.012070,0.004715,0.009857,28.0090,-19.9860,-29.7455,0.000000,0.000000,0.0,0.00,0.0
3545.720,-1.1311,7.9240,5.5869,0.014206,0.006851,0.010925,28.0090,-19.9860,-29.7455,0.000000,0.000000,0.0,0.00,0.0
3545.723,-1.1072,7.9431,5.5941,0.016327,0.006851,0.011993,26.9409,-19.9966,-30.2032,0.000000,0.000000,0.0,0.00,0.0
3545.725,-1.1503,7.8928,5.5725,0.015274,0.005783,0.007721,26.9409,-19.9966,-30.2032,0.000000,0.000000,0.0,0.00,0.0
3545.728,-1.1814,7.8569,5.5677,0.015274,0.005783,0.011993,26.9409,-19.9966,-30.2032,0.000000,0.000000,0.0,0.00,0.0
3545.730,-1.1503,7.8976,5.5797,0.019531,0.005783,0.014114,26.9409,-19.9966,-30.2032,0.000000,0.000000,0.0,0.00,0.0
3545.733,-1.1479,7.9287,5.5247,0.017395,0.003662,0.011993,26.9409,-19.9966,-30.2032,0.000000,0.000000,0.0,0.00,0.0
3545.735,-1.1670,7.8928,5.5031,0.017395,0.004715,0.013046,26.9409,-19.9966,-30.2032,0.000000,0.000000,0.0,0.00,0.0
3545.738,-1.1503,7.9742,5.5414,0.014206,0.004715,0.014114,26.9409,-19.9966,-30.2032,0.000000,0.000000,0.0,0.00,0.0
3545.741,-1.1096,7.9886,5.5558,0.015274,0.002594,0.015182,26.9409,-19.9966,-30.2032,0.000000,0.000000,0.0,0.00,0.0
3545.742,-1.0976,7.9479,5.4720,0.016327,0.001526,0.014114,26.4877,-19.5419,-29.4312,0.000000,0.000000,0.0,0.00,0.0
3545.745,-1.1167,7.9479,5.4816,0.013138,-0.000610,0.013046,26.4877,-19.5419,-29.4312,0.000000,0.000000,0.0,0.00,0.0
3545.749,-1.1263,7.9383,5.5007,0.014206,-0.003799,0.011993,26.4877,-19.5419,-29.4312,0.000000,0.000000,0.0,0.00,0.0
3545.750,-1.1670,7.8952,5.4600,0.014206,-0.012329,0.010925,26.4877,-19.5419,-29.4312,0.000000,0.000000,0.0,0.00,0.0
3545.753,-1.1574,7.9263,5.4385,0.013138,-0.018707,0.009857,26.4877,-19.5419,-29.4312,0.000000,0.000000,0.0,0.00,0.0
3545.757,-1.1526,7.9144,5.5223,0.013138,-0.019775,0.009857,26.4877,-19.5419,-29.4312,0.000000,0.000000,0.0,0.00,0.0
3545.758,-1.1335,7.9168,5.5031,0.011002,-0.021912,0.008789,26.4877,-19.5419,-29.4312,0.000000,0.000000,0.0,0.00,0.0
3545.760,-1.1191,7.9718,5.4983,0.008881,-0.026169,0.007721,26.4877,-19.5419,-29.4312,0.000000,0.000000,0.0,0.00,0.0
3545.763,-1.1335,7.9742,5.6133,0.009933,-0.029373,0.009857,27.7100,-19.2245,-27.8976,0.000000,0.000000,0.0,0.00,0.0
3545.767,-1.1455,7.9168,5.6133,0.007813,-0.028305,0.009857,27.7100,-19.2245,-27.8976,0.000000,0.000000,0.0,0.00,0.0
3545.768,-1.1503,7.9168,5.6156,0.006744,-0.027237,0.005600,27.7100,-19.2245,-27.8976,0.000000,0.000000,0.0,0.00,0.0
3545.771,-1.1622,7.9263,5.6228,0.009933,-0.022980,0.004532,27.7100,-19.2245,-27.8976,0.000000,0.000000,0.0,0.00,0.0
3545.773,-1.1598,7.9479,5.6085,0.011002,-0.019775,0.007721,27.7100,-19.2245,-27.8976,0.000000,0.000000,0.0,0.00,0.0
3545.776,-1.1526,7.9263,5.5869,0.006744,-0.017654,0.006668,27.7100,-19.2245,-27.8976,0.000000,0.000000,0.0,0.00,0.0
3545.778,-1.1503,7.9144,5.5582,0.006744,-0.019775,0.006668,27.7100,-19.2245,-27.8976,0.000000,0.000000,0.0,0.00,0.0
3545.782,-1.1263,7.8785,5.5893,0.008881,-0.018707,0.007721,27.7100,-19.2245,-27.8976,0.000000,0.000000,0.0,0.00,0.0
3545.783,-1.1598,7.8689,5.6228,0.011002,-0.017654,0.006668,28.6148,-20.4391,-30.6702,0.000000,0.000000,0.0,0.00,0.0
3545.786,-1.1838,7.8497,5.6396,0.009933,-0.017654,0.009857,28.6148,-20.4391,-30.6702,0.000000,0.000000,0.0,0.00,0.0
3545.789,-1.2005,7.8378,5.6611,0.009933,-0.015518,0.011993,28.6148,-20.4391,-30.6702,0.000000,0.000000,0.0,0.00,0.0
3545.791,-1.1526,7.9072,5.6133,0.009933,-0.014450,0.013046,28.6148,-20.4391,-30.6702,0.000000,0.000000,0.0,0.00,0.0
3545.793,-1.1526,7.8952,5.6109,0.009933,-0.017654,0.014114,28.6148,-20.4391,-30.6702,0.000000,0.000000,0.0,0.00,0.0
3545.796,-1.1646,7.9000,5.6468,0.009933,-0.016586,0.015182,28.6148,-20.4391,-30.6702,0.000000,0.000000,0.0,0.00,0.0
3545.798,-1.1359,7.8976,5.7042,0.013138,-0.014450,0.013046,28.6148,-20.4391,-30.6702,0.000000,0.000000,0.0,0.00,0.0
3545.801,-1.1526,7.9216,5.6204,0.013138,-0.012329,0.015182,28.6148,-20.4391,-30.6702,0.000000,0.000000,0.0,0.00,0.0
3545.803,-1.1766,7.9311,5.5869,0.013138,-0.013382,0.013046,27.0935,-19.6930,-31.4163,0.000000,0.000000,0.0,0.00,0.0
3545.806,-1.1814,7.8857,5.5773,0.012070,-0.012329,0.013046,27.0935,-19.6930,-31.4163,0.000000,0.000000,0.0,0.00,0.0
3545.808,-1.2556,7.9072,5.5821,0.017395,-0.011261,0.016251,27.0935,-19.6930,-31.4163,0.000000,0.000000,0.0,0.00,0.0
3545.812,-1.2005,7.8952,5.5654,0.017395,-0.014450,0.017319,27.0935,-19.6930,-31.4163,0.000000,0.000000,0.0,0.00,0.0
3545.814,-1.1072,7.9240,5.6037,0.016327,-0.018707,0.019440,27.0935,-19.6930,-31.4163,0.000000,0.000000,0.0,0.00,0.0
3545.816,-1.1455,7.9527,5.5893,0.017395,-0.018707,0.020508,27.0935,-19.6930,-31.4163,0.000000,0.000000,0.0,0.00,0.0
3545.819,-1.0904,7.9263,5.6372,0.017395,-0.019775,0.019440,27.0935,-19.6930,-31.4163,0.000000,0.000000,0.0,0.00,0.0
3545.821,-1.1072,7.9551,5.6037,0.019531,-0.021912,0.022644,27.0935,-19.6930,-31.4163,0.000000,0.000000,0.0,0.00,0.0
3545.823,-1.0976,7.9671,5.5893,0.019531,-0.021912,0.023712,25.2686,-19.7037,-28.8254,0.000000,0.000000,0.0,0.00,0.0
3545.826,-1.1096,7.9503,5.6133,0.019531,-0.024048,0.023712,25.2686,-19.7037,-28.8254,0.000000,0.000000,0.0,0.00,0.0
3545.829,-1.0760,7.9503,5.5486,0.021652,-0.028305,0.017319,25.2686,-19.7037,-28.8254,0.000000,0.000000,0.0,0.00,0.0
3545.831,-1.1072,7.9048,5.5630,0.021652,-0.028305,0.020508,25.2686,-19.7037,-28.8254,0.000000,0.000000,0.0,0.00,0.0
3545.834,-1.0976,7.9742,5.6013,0.021652,-0.029373,0.021576,25.2686,-19.7037,-28.8254,0.000000,0.000000,0.0,0.00,0.0
3545.836,-1.1287,7.9886,5.5510,0.019531,-0.030426,0.018387,25.2686,-19.7037,-28.8254,0.000000,0.000000,0.0,0.00,0.0
3545.839,-1.1191,7.9383,5.6013,0.022720,-0.027237,0.017319,25.2686,-19.7037,-28.8254,0.000000,0.000000,0.0,0.00,0.0
3545.841,-1.1096,7.9910,5.5989,0.021652,-0.026169,0.018387,25.2686,-19.7037,-28.8254,0.000000,0.000000,0.0,0.00,0.0
3545.844,-1.1191,7.9455,5.5797,0.021652,-0.026169,0.016251,26.4816,-20.6085,-30.2170,0.000000,0.000000,0.0,0.00,0.0
3545.846,-1.1048,7.9575,5.5606,0.019531,-0.025101,0.016251,26.4816,-20.6085,-30.2170,0.000000,0.000000,0.0,0.00,0.0
3545.849,-1.0736,7.9479,5.5630,0.022720,-0.024048,0.017319,26.4816,-20.6085,-30.2170,0.000000,0.000000,0.0,0.00,0.0
3545.851,-1.0952,7.9431,5.5414,0.023788,-0.018707,0.015182,26.4816,-20.6085,-30.2170,0.000000,0.000000,0.0,0.00,0.0
3545.854,-1.0665,7.9192,5.5773,0.022720,-0.018707,0.016251,26.4816,-20.6085,-30.2170,0.000000,0.000000,0.0,0.00,0.0
3545.856,-1.0569,7.9503,5.5342,0.020599,-0.018707,0.015182,26.4816,-20.6085,-30.2170,0.000000,0.000000,0.0,0.00,0.0
3545.858,-1.0808,7.9359,5.5103,0.022720,-0.015518,0.017319,26.4816,-20.6085,-30.2170,0.000000,0.000000,0.0,0.00,0.0
3545.862,-1.0784,7.9503,5.4672,0.021652,-0.016586,0.017319,26.4816,-20.6085,-30.2170,0.000000,0.000000,0.0,0.00,0.0
3545.863,-1.0545,7.9144,5.5031,0.015274,-0.010193,0.013046,28.3142,-19.9829,-29.4388,0.000000,0.000000,0.0,0.00,0.0
3545.866,-1.0593,7.9551,5.4840,0.017395,-0.011261,0.010925,28.3142,-19.9829,-29.4388,0.000000,0.000000,0.0,0.00,0.0
3545.869,-1.0736,7.9742,5.5318,0.015274,-0.015518,0.008789,28.3142,-19.9829,-29.4388,0.000000,0.000000,0.0,0.00,0.0
3545.871,-1.0641,7.9335,5.5271,0.014206,-0.015518,0.009857,28.3142,-19.9829,-29.4388,0.000000,0.000000,0.0,0.00,0.0
3545.874,-1.0617,7.9742,5.5127,0.012070,-0.010193,0.011993,28.3142,-19.9829,-29.4388,0.000000,0.000000,0.0,0.00,0.0
3545.877,-1.0282,7.9814,5.5486,0.012070,-0.012329,0.015182,28.3142,-19.9829,-29.4388,0.000000,0.000000,0.0,0.00,0.0
3545.879,-1.0282,7.9335,5.5318,0.011002,-0.013382,0.010925,28.3142,-19.9829,-29.4388,0.000000,0.000000,0.0,0.00,0.0
3545.881,-1.0665,7.9024,5.5199,0.008881,-0.008057,0.008789,25.8759,-20.0012,-28.6804,0.000000,0.000000,0.0,0.00,0.0
3545.884,-1.0425,7.9311,5.5079,0.009933,-0.014450,0.009857,25.8759,-20.0012,-28.6804,0.000000,0.000000,0.0,0.00,0.0
3545.886,-1.0353,7.9000,5.5366,0.011002,-0.013382,0.008789,25.8759,-20.0012,-28.6804,0.000000,0.000000,0.0,0.00,0.0
3545.889,-1.0497,7.9000,5.5247,0.012070,-0.012329,0.007721,25.8759,-20.0012,-28.6804,0.000000,0.000000,0.0,0.00,0.0
3545.891,-1.0784,7.9168,5.6013,0.011002,-0.007004,0.007721,25.8759,-20.0012,-28.6804,0.000000,0.000000,0.0,0.00,0.0
3545.894,-1.0162,7.9048,5.5558,0.008881,-0.009125,0.009857,25.8759,-20.0012,-28.6804,0.000000,0.000000,0.0,0.00,0.0
3545.896,-0.9922,7.9192,5.5247,0.008881,-0.004868,0.007721,25.8759,-20.0012,-28.6804,0.000000,0.000000,0.0,0.00,0.0
3545.899,-0.9899,7.9311,5.5342,0.008881,-0.000610,0.008789,25.8759,-20.0012,-28.6804,0.000000,0.000000,0.0,0.00,0.0
3545.901,-0.9970,7.9311,5.5438,0.011002,0.003662,0.007721,27.2446,-20.2972,-30.2094,0.000000,0.000000,0.0,0.00,0.0
3545.904,-1.0282,7.9216,5.4959,0.007813,0.004715,0.005600,27.2446,-20.2972,-30.2094,0.000000,0.000000,0.0,0.00,0.0
3545.906,-1.0473,7.9168,5.4289,0.008881,0.004715,0.004532,27.2446,-20.2972,-30.2094,0.000000,0.000000,0.0,0.00,0.0
3545.909,-1.0641,7.9216,5.4050,0.008881,0.008987,0.000275,27.2446,-20.2972,-30.2094,0.000000,0.000000,0.0,0.00,0.0
3545.911,-1.0521,7.9287,5.4002,0.008881,0.007919,0.001343,27.2446,-20.2972,-30.2094,0.000000,0.000000,0.0,0.00,0.0
3545.914,-1.0401,7.9287,5.3642,0.004608,0.005783,0.000275,27.2446,-20.2972,-30.2094,0.000000,0.000000,0.0,0.00,0.0
3545.916,-1.0665,7.9263,5.3882,0.001419,0.001526,-0.000793,27.2446,-20.2972,-30.2094,0.000000,0.000000,0.0,0.00,0.0
3545.919,-1.0521,7.9694,5.4002,0.000351,-0.000610,-0.001862,27.2446,-20.2972,-30.2094,0.000000,0.000000,0.0,0.00,0.0
3545.922,-1.0234,7.9886,5.3259,-0.001770,-0.002731,-0.000793,28.3112,-20.2881,-30.2094,0.000000,0.000000,0.0,0.00,0.0
3545.924,-1.0832,7.9551,5.4289,-0.003906,-0.007004,0.000275,28.3112,-20.2881,-30.2094,0.000000,0.000000,0.0,0.00,0.0
3545.927,-1.0880,7.9240,5.4672,-0.010300,-0.007004,-0.001862,28.3112,-20.2881,-30.2094,0.000000,0.000000,0.0,0.00,0.0
3545.929,-1.0497,7.8976,5.4624,-0.012436,-0.010193,-0.007187,28.3112,-20.2881,-30.2094,0.000000,0.000000,0.0,0.00,0.0
3545.932,-1.0976,7.9383,5.4792,-0.013489,-0.014450,-0.006119,28.3112,-20.2881,-30.2094,0.000000,0.000000,0.0,0.00,0.0
3545.934,-1.1215,7.9216,5.4887,-0.014557,-0.014450,-0.006119,28.3112,-20.2881,-30.2094,0.000000,0.000000,0.0,0.00,0.0
3545.940,-1.1167,7.9000,5.5462,-0.015625,-0.018707,-0.009323,28.3112,-20.2881,-30.2094,0.000000,0.000000,0.0,0.00,0.0
3545.940,-1.1287,7.9024,5.5773,-0.020950,-0.022980,-0.006119,28.3112,-20.2881,-30.2094,0.000000,0.000000,0.0,0.00,0.0
3545.947,-1.1503,7.8737,5.5534,-0.018829,-0.021912,-0.003998,25.8804,-18.7897,-30.4825,0.000000,0.000000,0.0,0.00,0.0
3545.948,-1.1215,7.9168,5.6683,-0.017761,-0.018707,-0.007187,25.8804,-18.7897,-30.4825,0.000000,0.000000,0.0,0.00,0.0
3545.948,-1.1191,7.9120,5.7258,-0.015625,-0.018707,-0.005051,25.8804,-18.7897,-30.4825,0.000000,0.000000,0.0,0.00,0.0
3545.949,-1.1143,7.8689,5.6779,-0.014557,-0.018707,-0.000793,25.8804,-18.7897,-30.4825,0.000000,0.000000,0.0,0.00,0.0
3545.952,-1.1215,7.8904,5.6539,-0.009232,-0.015518,0.001343,25.8804,-18.7897,-30.4825,0.000000,0.000000,0.0,0.00,0.0
3545.954,-1.0808,7.9120,5.6324,-0.012436,-0.008057,0.002396,25.8804,-18.7897,-30.4825,0.000000,0.000000,0.0,0.00,0.0
3545.957,-1.0904,7.9240,5.6659,-0.009232,-0.007004,0.003464,25.8804,-18.7897,-30.4825,0.000000,0.000000,0.0,0.00,0.0
3545.960,-1.0952,7.9455,5.7018,-0.003906,-0.004868,0.004532,25.8804,-18.7897,-30.4825,0.000000,0.000000,0.0,0.00,0.0
3545.962,-1.0760,7.9072,5.6779,-0.002838,0.000458,0.005600,26.7914,-19.3909,-30.9525,0.000000,0.000000,0.0,0.00,0.0
3545.964,-1.0832,7.9096,5.7090,0.000351,0.006851,0.008789,26.7914,-19.3909,-30.9525,0.000000,0.000000,0.0,0.00,0.0
3545.967,-1.0665,7.9287,5.6587,0.001419,0.012177,0.007721,26.7914,-19.3909,-30.9525,0.000000,0.000000,0.0,0.00,0.0
3545.969,-1.0808,7.9192,5.6204,0.006744,0.010056,0.006668,26.7914,-19.3909,-30.9525,0.000000,0.000000,0.0,0.00,0.0
3545.972,-1.1143,7.9359,5.6061,0.004608,0.012177,0.006668,26.7914,-19.3909,-30.9525,0.000000,0.000000,0.0,0.00,0.0
3545.975,-1.0928,7.9287,5.5869,0.007813,0.012177,0.006668,26.7914,-19.3909,-30.9525,0.000000,0.000000,0.0,0.00,0.0
3545.977,-1.1479,7.9431,5.5366,0.009933,0.012177,0.006668,26.7914,-19.3909,-30.9525,0.000000,0.000000,0.0,0.00,0.0
3545.979,-1.1335,7.9263,5.5869,0.009933,0.017502,0.010925,26.7914,-19.3909,-30.9525,0.000000,0.000000,0.0,0.00,0.0
3545.982,-1.0928,7.9000,5.5869,0.006744,0.014313,0.010925,26.0300,-19.6976,-29.2831,0.000000,0.000000,0.0,0.00,0.0
3545.985,-1.0904,7.9718,5.5606,0.005676,0.008987,0.009857,26.0300,-19.6976,-29.2831,0.000000,0.000000,0.0,0.00,0.0
3545.987,-1.0832,7.9838,5.5701,0.003555,0.006851,0.015182,26.0300,-19.6976,-29.2831,0.000000,0.000000,0.0,0.00,0.0
3545.990,-1.0617,7.9647,5.5893,0.003555,0.012177,0.013046,26.0300,-19.6976,-29.2831,0.000000,0.000000,0.0,0.00,0.0
3545.992,-1.0832,7.9383,5.5654,0.002487,0.007919,0.010925,26.0300,-19.6976,-29.2831,0.000000,0.000000,0.0,0.00,0.0
3545.994,-1.0808,7.9790,5.5845,0.002487,0.006851,0.010925,26.0300,-19.6976,-29.2831,0.000000,0.000000,0.0,0.00,0.0
3545.998,-1.0665,7.9383,5.6228,0.002487,0.005783,0.008789,26.0300,-19.6976,-29.2831,0.000000,0.000000,0.0,0.00,0.0
3545.999,-1.0641,7.9311,5.6156,0.004608,0.005783,0.009857,26.0300,-19.6976,-29.2831,0.000000,0.000000,0.0,0.00,0.0
3546.002,-1.0880,7.9790,5.6300,0.002487,0.006851,0.008789,26.7899,-19.6945,-30.6549,0.000000,0.000000,0.0,0.00,0.0
3546.005,-1.1024,7.9359,5.5965,0.005676,0.004715,0.006668,26.7899,-19.6945,-30.6549,0.000000,0.000000,0.0,0.00,0.0
3546.007,-1.1143,7.9790,5.5342,0.005676,0.005783,0.007721,26.7899,-19.6945,-30.6549,0.000000,0.000000,0.0,0.00,0.0
3546.010,-1.0928,7.9599,5.4935,0.004608,0.003662,0.008789,26.7899,-19.6945,-30.6549,0.000000,0.000000,0.0,0.00,0.0
3546.013,-1.0641,7.9575,5.5701,0.006744,0.003662,0.007721,26.7899,-19.6945,-30.6549,0.000000,0.000000,0.0,0.00,0.0
3546.015,-1.0138,7.9623,5.5677,0.008881,0.002594,0.006668,26.7899,-19.6945,-30.6549,0.000000,0.000000,0.0,0.00,0.0
3546.017,-1.0760,7.9886,5.5917,0.007813,0.002594,0.005600,26.7899,-19.6945,-30.6549,0.000000,0.000000,0.0,0.00,0.0
3546.020,-1.0736,7.9910,5.6228,0.006744,0.004715,0.006668,26.7899,-19.6945,-30.6549,0.000000,0.000000,0.0,0.00,0.0
3546.022,-1.0401,7.9671,5.6420,0.006744,0.007919,0.003464,28.1631,-19.6808,-29.8904,0.000000,0.000000,0.0,0.00,0.0
3546.025,-1.0856,7.9575,5.5941,0.007813,0.007919,-0.000793,28.1631,-19.6808,-29.8904,0.000000,0.000000,0.0,0.00,0.0
3546.028,-1.1143,7.9647,5.5271,0.006744,0.008987,-0.000793,28.1631,-19.6808,-29.8904,0.000000,0.000000,0.0,0.00,0.0
3546.030,-1.1191,7.9168,5.4935,0.006744,0.013245,-0.000793,28.1631,-19.6808,-29.8904,0.000000,0.000000,0.0,0.00,0.0
3546.032,-1.1024,7.9503,5.4720,0.004608,0.016434,-0.002930,28.1631,-19.6808,-29.8904,0.000000,0.000000,0.0,0.00,0.0
3546.035,-1.1048,7.9144,5.4480,0.004608,0.016434,-0.002930,28.1631,-19.6808,-29.8904,0.000000,0.000000,0.0,0.00,0.0
3546.037,-1.1407,7.9455,5.4456,0.003555,0.007919,-0.000793,28.1631,-19.6808,-29.8904,0.000000,0.000000,0.0,0.00,0.0
3546.040,-1.1048,7.9503,5.4169,0.003555,0.001526,-0.002930,28.1631,-19.6808,-29.8904,0.000000,0.000000,0.0,0.00,0.0
3546.042,-1.0904,8.0101,5.4887,0.000351,0.001526,-0.001862,25.4227,-18.7927,-30.1773,0.000000,0.000000,0.0,0.00,0.0
3546.045,-1.0928,7.9862,5.4169,-0.000717,0.000458,-0.000793,25.4227,-18.7927,-30.1773,0.000000,0.000000,0.0,0.00,0.0
3546.048,-1.0880,7.9671,5.4337,-0.000717,-0.004868,-0.002930,25.4227,-18.7927,-30.1773,0.000000,0.000000,0.0,0.00,0.0
3546.050,-1.0952,7.9311,5.4600,-0.002838,-0.010193,-0.003998,25.4227,-18.7927,-30.1773,0.000000,0.000000,0.0,0.00,0.0
3546.053,-1.1215,7.9623,5.4648,-0.006042,-0.011261,-0.003998,25.4227,-18.7927,-30.1773,0.000000,0.000000,0.0,0.00,0.0
3546.055,-1.1120,7.9575,5.4792,-0.003906,-0.014450,-0.006119,25.4227,-18.7927,-30.1773,0.000000,0.000000,0.0,0.00,0.0
3546.058,-1.1215,7.9072,5.4361,-0.004974,-0.016586,-0.006119,25.4227,-18.7927,-30.1773,0.000000,0.000000,0.0,0.00,0.0
3546.060,-1.1479,7.8857,5.4624,-0.004974,-0.019775,-0.006119,25.4227,-18.7927,-30.1773,0.000000,0.000000,0.0,0.00,0.0
3546.062,-1.1167,7.9240,5.4983,-0.008163,-0.021912,-0.003998,26.0193,-21.5240,-30.3909,0.000000,0.000000,0.0,0.00,0.0
3546.065,-1.1287,7.9048,5.5701,-0.007111,-0.022980,-0.002930,26.0193,-21.5240,-30.3909,0.000000,0.000000,0.0,0.00,0.0
3546.068,-1.1215,7.9072,5.5271,-0.007111,-0.024048,-0.000793,26.0193,-21.5240,-30.3909,0.000000,0.000000,0.0,0.00,0.0
3546.070,-1.1143,7.9048,5.5055,-0.007111,-0.024048,0.000275,26.0193,-21.5240,-30.3909,0.000000,0.000000,0.0,0.00,0.0
3546.073,-1.0928,7.9144,5.5414,-0.003906,-0.025101,0.002396,26.0193,-21.5240,-30.3909,0.000000,0.000000,0.0,0.00,0.0
3546.076,-1.1024,7.9431,5.5606,-0.002838,-0.025101,0.003464,26.0193,-21.5240,-30.3909,0.000000,0.000000,0.0,0.00,0.0
3546.078,-1.1072,7.8880,5.5654,-0.003906,-0.028305,0.004532,26.0193,-21.5240,-30.3909,0.000000,0.000000,0.0,0.00,0.0
3546.080,-1.1311,7.8545,5.6468,-0.001770,-0.026169,0.004532,26.0193,-21.5240,-30.3909,0.000000,0.000000,0.0,0.00,0.0
3546.083,-1.0832,7.8761,5.6156,-0.000717,-0.030426,0.007721,26.3260,-21.2158,-29.6219,0.000000,0.000000,0.0,0.00,0.0
3546.085,-1.1072,7.8737,5.6037,-0.001770,-0.030426,0.006668,26.3260,-21.2158,-29.6219,0.000000,0.000000,0.0,0.00,0.0
3546.088,-1.0784,7.8952,5.5654,0.002487,-0.028305,0.007721,26.3260,-21.2158,-29.6219,0.000000,0.000000,0.0,0.00,0.0
3546.090,-1.0952,7.8378,5.6252,0.006744,-0.024048,0.011993,26.3260,-21.2158,-29.6219,0.000000,0.000000,0.0,0.00,0.0
3546.093,-1.0856,7.8425,5.6324,0.007813,-0.026169,0.011993,26.3260,-21.2158,-29.6219,0.000000,0.000000,0.0,0.00,0.0
3546.095,-1.0736,7.8569,5.6252,0.007813,-0.020844,0.013046,26.3260,-21.2158,-29.6219,0.000000,0.000000,0.0,0.00,0.0
3546.098,-1.0928,7.9048,5.6228,0.006744,-0.018707,0.016251,26.3260,-21.2158,-29.6219,0.000000,0.000000,0.0,0.00,0.0
3546.101,-1.0234,7.8928,5.6013,0.012070,-0.018707,0.017319,26.3260,-21.2158,-29.6219,0.000000,0.000000,0.0,0.00,0.0
3546.103,-1.0425,7.9096,5.5917,0.013138,-0.014450,0.020508,26.1810,-20.0012,-29.4418,0.000000,0.000000,0.0,0.00,0.0
3546.106,-1.0401,7.9551,5.6109,0.014206,-0.013382,0.020508,26.1810,-20.0012,-29.4418,0.000000,0.000000,0.0,0.00,0.0
3546.108,-1.0138,7.8976,5.6109,0.016327,-0.008057,0.021576,26.1810,-20.0012,-29.4418,0.000000,0.000000,0.0,0.00,0.0
3546.111,-0.9899,7.9335,5.5821,0.014206,-0.003799,0.020508,26.1810,-20.0012,-29.4418,0.000000,0.000000,0.0,0.00,0.0
3546.113,-0.9803,7.9000,5.6109,0.016327,0.000458,0.020508,26.1810,-20.0012,-29.4418,0.000000,0.000000,0.0,0.00,0.0
3546.115,-1.0042,7.9096,5.5318,0.015274,0.007919,0.021576,26.1810,-20.0012,-29.4418,0.000000,0.000000,0.0,0.00,0.0
3546.118,-1.0329,7.9048,5.5510,0.014206,0.010056,0.021576,26.1810,-20.0012,-29.4418,0.000000,0.000000,0.0,0.00,0.0
3546.121,-0.9970,7.9527,5.5701,0.013138,0.011108,0.018387,26.1810,-20.0012,-29.4418,0.000000,0.000000,0.0,0.00,0.0
3546.123,-0.9827,7.9455,5.5175,0.013138,0.012177,0.019440,26.4801,-21.0632,-29.7699,0.000000,0.000000,0.0,0.00,0.0
3546.126,-1.0138,7.9216,5.4959,0.011002,0.016434,0.014114,26.4801,-21.0632,-29.7699,0.000000,0.000000,0.0,0.00,0.0
3546.128,-1.0377,7.9431,5.4911,0.009933,0.014313,0.014114,26.4801,-21.0632,-29.7699,0.000000,0.000000,0.0,0.00,0.0
3546.131,-1.0042,7.9910,5.4648,0.007813,0.012177,0.011993,26.4801,-21.0632,-29.7699,0.000000,0.000000,0.0,0.00,0.0
3546.133,-1.0210,7.9575,5.4337,0.004608,0.011108,0.010925,26.4801,-21.0632,-29.7699,0.000000,0.000000,0.0,0.00,0.0
3546.135,-1.0329,7.9742,5.4840,0.004608,0.010056,0.009857,26.4801,-21.0632,-29.7699,0.000000,0.000000,0.0,0.00,0.0
3546.138,-1.0042,7.9766,5.5103,0.000351,0.007919,0.011993,26.4801,-21.0632,-29.7699,0.000000,0.000000,0.0,0.00,0.0
3546.141,-1.0305,8.0006,5.4504,-0.000717,0.006851,0.008789,26.4801,-21.0632,-29.7699,0.000000,0.000000,0.0,0.00,0.0
3546.143,-1.0210,8.0101,5.4648,-0.006042,0.006851,0.007721,27.3956,-20.9015,-28.8513,0.000000,0.000000,0.0,0.00,0.0
3546.146,-1.0569,7.9527,5.4935,-0.007111,0.006851,0.005600,27.3956,-20.9015,-28.8513,0.000000,0.000000,0.0,0.00,0.0
3546.148,-1.0641,7.9455,5.4864,-0.007111,0.005783,0.004532,27.3956,-20.9015,-28.8513,0.000000,0.000000,0.0,0.00,0.0
3546.151,-1.0832,7.9671,5.5223,-0.009232,0.005783,0.001343,27.3956,-20.9015,-28.8513,0.000000,0.000000,0.0,0.00,0.0
3546.153,-1.0880,7.9455,5.4576,-0.011368,0.008987,0.000275,27.3956,-20.9015,-28.8513,0.000000,0.000000,0.0,0.00,0.0
3546.156,-1.0880,7.9503,5.4097,-0.011368,0.003662,-0.000793,27.3956,-20.9015,-28.8513,0.000000,0.000000,0.0,0.00,0.0
3546.158,-1.1000,7.9144,5.4409,-0.012436,0.000458,-0.000793,27.3956,-20.9015,-28.8513,0.000000,0.000000,0.0,0.00,0.0
3546.161,-1.0545,7.9072,5.4169,-0.012436,0.000458,-0.000793,27.3956,-20.9015,-28.8513,0.000000,0.000000,0.0,0.00,0.0
3546.163,-1.0688,7.9934,5.3810,-0.014557,-0.002731,0.000275,25.5737,-19.3985,-29.2755,0.000000,0.000000,0.0,0.00,0.0
3546.166,-1.0688,7.9671,5.4744,-0.016693,-0.002731,-0.000793,25.5737,-19.3985,-29.2755,0.000000,0.000000,0.0,0.00,0.0
3546.169,-1.0473,7.9263,5.5151,-0.015625,-0.004868,-0.002930,25.5737,-19.3985,-29.2755,0.000000,0.000000,0.0,0.00,0.0
3546.171,-1.0497,7.9455,5.5223,-0.015625,-0.003799,-0.007187,25.5737,-19.3985,-29.2755,0.000000,0.000000,0.0,0.00,0.0
3546.173,-1.0665,7.9311,5.5438,-0.014557,-0.003799,-0.008255,25.5737,-19.3985,-29.2755,0.000000,0.000000,0.0,0.00,0.0
3546.176,-1.0808,7.9216,5.6085,-0.012436,-0.003799,-0.010376,25.5737,-19.3985,-29.2755,0.000000,0.000000,0.0,0.00,0.0
3546.178,-1.0880,7.9455,5.6013,-0.012436,-0.002731,-0.009323,25.5737,-19.3985,-29.2755,0.000000,0.000000,0.0,0.00,0.0
3546.181,-1.0976,7.9455,5.6204,-0.011368,0.001526,-0.008255,25.5737,-19.3985,-29.2755,0.000000,0.000000,0.0,0.00,0.0
3546.183,-1.1000,7.9168,5.6133,-0.012436,0.002594,-0.010376,25.4105,-21.6766,-28.4134,0.000000,0.000000,0.0,0.00,0.0
3546.186,-1.0832,7.9048,5.6276,-0.013489,0.002594,-0.006119,25.4105,-21.6766,-28.4134,0.000000,0.000000,0.0,0.00,0.0
3546.189,-1.1096,7.9359,5.6204,-0.012436,0.001526,-0.005051,25.4105,-21.6766,-28.4134,0.000000,0.000000,0.0,0.00,0.0
3546.191,-1.0832,7.9263,5.6109,-0.011368,0.000458,-0.008255,25.4105,-21.6766,-28.4134,0.000000,0.000000,0.0,0.00,0.0
3546.194,-1.1263,7.9072,5.5606,-0.007111,-0.001663,-0.005051,25.4105,-21.6766,-28.4134,0.000000,0.000000,0.0,0.00,0.0
3546.196,-1.0856,7.9144,5.5749,-0.009232,-0.003799,-0.003998,25.4105,-21.6766,-28.4134,0.000000,0.000000,0.0,0.00,0.0
3546.199,-1.1072,7.8761,5.5701,-0.012436,-0.005936,-0.003998,25.4105,-21.6766,-28.4134,0.000000,0.000000,0.0,0.00,0.0
3546.201,-1.1694,7.8737,5.5534,-0.012436,-0.004868,-0.002930,25.4105,-21.6766,-28.4134,0.000000,0.000000,0.0,0.00,0.0
3546.203,-1.1694,7.8904,5.5031,-0.012436,-0.003799,-0.000793,26.3306,-20.4559,-29.6051,0.000000,0.000000,0.0,0.00,0.0
3546.206,-1.1407,7.8809,5.5582,-0.012436,-0.009125,0.002396,26.3306,-20.4559,-29.6051,0.000000,0.000000,0.0,0.00,0.0
3546.209,-1.1024,7.9407,5.5917,-0.013489,-0.010193,-0.000793,26.3306,-20.4559,-29.6051,0.000000,0.000000,0.0,0.00,0.0
3546.211,-1.0808,7.9000,5.5941,-0.015625,-0.008057,0.000275,26.3306,-20.4559,-29.6051,0.000000,0.000000,0.0,0.00,0.0
3546.214,-1.0569,7.9407,5.6252,-0.013489,-0.016586,0.005600,26.3306,-20.4559,-29.6051,0.000000,0.000000,0.0,0.00,0.0
3546.217,-1.0880,7.9335,5.5486,-0.008163,-0.018707,0.005600,26.3306,-20.4559,-29.6051,0.000000,0.000000,0.0,0.00,0.0
3546.219,-1.0904,7.8976,5.5486,-0.007111,-0.018707,0.004532,26.3306,-20.4559,-29.6051,0.000000,0.000000,0.0,0.00,0.0
3546.221,-1.1000,7.9072,5.5725,-0.006042,-0.024048,0.005600,27.0889,-21.2097,-29.9255,0.000000,0.000000,0.0,0.00,0.0
3546.224,-1.1096,7.8976,5.5965,-0.002838,-0.024048,0.004532,27.0889,-21.2097,-29.9255,0.000000,0.000000,0.0,0.00,0.0
3546.226,-1.1072,7.9048,5.6180,-0.001770,-0.019775,0.004532,27.0889,-21.2097,-29.9255,0.000000,0.000000,0.0,0.00,0.0
3546.229,-1.0904,7.9072,5.6372,0.001419,-0.022980,0.011993,27.0889,-21.2097,-29.9255,0.000000,0.000000,0.0,0.00,0.0
3546.231,-1.0976,7.9599,5.5917,0.002487,-0.021912,0.014114,27.0889,-21.2097,-29.9255,0.000000,0.000000,0.0,0.00,0.0
3546.234,-1.0808,7.9096,5.5941,0.004608,-0.020844,0.017319,27.0889,-21.2097,-29.9255,0.000000,0.000000,0.0,0.00,0.0
3546.236,-1.0688,7.9120,5.5845,0.006744,-0.021912,0.019440,27.0889,-21.2097,-29.9255,0.000000,0.000000,0.0,0.00,0.0
3546.239,-1.0329,7.9431,5.6396,0.008881,-0.022980,0.014114,27.0889,-21.2097,-29.9255,0.000000,0.000000,0.0,0.00,0.0
3546.242,-1.0210,7.9048,5.6420,0.012070,-0.026169,0.018387,27.2415,-20.6039,-31.2836,0.000000,0.000000,0.0,0.00,0.0
3546.243,-1.0353,7.9551,5.6252,0.011002,-0.020844,0.019440,27.2415,-20.6039,-31.2836,0.000000,0.000000,0.0,0.00,0.0
3546.247,-1.0545,7.9527,5.5821,0.016327,-0.027237,0.019440,27.2415,-20.6039,-31.2836,0.000000,0.000000,0.0,0.00,0.0
3546.249,-1.0449,7.9359,5.5749,0.016327,-0.030426,0.019440,27.2415,-20.6039,-31.2836,0.000000,0.000000,0.0,0.00,0.0
3546.251,-1.0880,7.9263,5.5558,0.015274,-0.029373,0.016251,27.2415,-20.6039,-31.2836,0.000000,0.000000,0.0,0.00,0.0
3546.254,-1.0856,7.9359,5.5677,0.017395,-0.030426,0.019440,27.2415,-20.6039,-31.2836,0.000000,0.000000,0.0,0.00,0.0
3546.256,-1.1143,7.9096,5.6013,0.016327,-0.032562,0.018387,27.2415,-20.6039,-31.2836,0.000000,0.000000,0.0,0.00,0.0
3546.259,-1.1191,7.9359,5.5917,0.016327,-0.033630,0.017319,27.2415,-20.6039,-31.2836,0.000000,0.000000,0.0,0.00,0.0
3546.261,-1.0880,7.9455,5.6061,0.015274,-0.031494,0.019440,24.9588,-20.1645,-30.3619,0.000000,0.000000,0.0,0.00,0.0
3546.264,-1.0832,7.9431,5.6324,0.016327,-0.032562,0.020508,24.9588,-20.1645,-30.3619,0.000000,0.000000,0.0,0.00,0.0
3546.266,-1.0473,7.9838,5.6156,0.019531,-0.038956,0.021576,24.9588,-20.1645,-30.3619,0.000000,0.000000,0.0,0.00,0.0
3546.269,-0.9970,7.9503,5.6156,0.020599,-0.038956,0.020508,24.9588,-20.1645,-30.3619,0.000000,0.000000,0.0,0.00,0.0
3546.272,-0.9563,8.0006,5.6731,0.021652,-0.037888,0.021576,24.9588,-20.1645,-30.3619,0.000000,0.000000,0.0,0.00,0.0
3546.276,-0.9731,7.9838,5.6635,0.023788,-0.035751,0.020508,24.9588,-20.1645,-30.3619,0.000000,0.000000,0.0,0.00,0.0
3546.276,-0.9683,8.0221,5.6683,0.021652,-0.037888,0.016251,24.9588,-20.1645,-30.3619,0.000000,0.000000,0.0,0.00,0.0
3546.279,-1.0114,8.0054,5.6156,0.021652,-0.033630,0.017319,24.9588,-20.1645,-30.3619,0.000000,0.000000,0.0,0.00,0.0
3546.281,-0.9515,7.9503,5.5941,0.021652,-0.027237,0.015182,25.8743,-20.3079,-29.7546,0.000000,0.000000,0.0,0.00,0.0
3546.284,-0.9539,7.9551,5.5725,0.018463,-0.024048,0.014114,25.8743,-20.3079,-29.7546,0.000000,0.000000,0.0,0.00,0.0
3546.286,-0.9922,7.9910,5.5630,0.021652,-0.018707,0.009857,25.8743,-20.3079,-29.7546,0.000000,0.000000,0.0,0.00,0.0
3546.290,-0.9946,7.9455,5.5294,0.020599,-0.015518,0.008789,25.8743,-20.3079,-29.7546,0.000000,0.000000,0.0,0.00,0.0
3546.292,-0.9922,7.9455,5.4935,0.019531,-0.012329,0.008789,25.8743,-20.3079,-29.7546,0.000000,0.000000,0.0,0.00,0.0
3546.294,-1.0449,7.9120,5.4911,0.016327,-0.012329,0.007721,25.8743,-20.3079,-29.7546,0.000000,0.000000,0.0,0.00,0.0
3546.297,-1.0401,7.9694,5.5055,0.015274,-0.014450,0.008789,25.8743,-20.3079,-29.7546,0.000000,0.000000,0.0,0.00,0.0
3546.300,-0.9635,7.9551,5.4983,0.016327,-0.013382,0.007721,25.8743,-20.3079,-29.7546,0.000000,0.000000,0.0,0.00,0.0
3546.301,-0.9611,7.9072,5.4409,0.015274,-0.013382,0.007721,26.3336,-19.6960,-29.5868,0.000000,0.000000,0.0,0.00,0.0
3546.304,-0.9803,7.9551,5.4864,0.012070,-0.013382,0.006668,26.3336,-19.6960,-29.5868,0.000000,0.000000,0.0,0.00,0.0
3546.307,-1.0018,7.9647,5.4935,0.009933,-0.016586,0.005600,26.3336,-19.6960,-29.5868,0.000000,0.000000,0.0,0.00,0.0
3546.309,-1.0042,7.9623,5.5031,0.011002,-0.018707,0.003464,26.3336,-19.6960,-29.5868,0.000000,0.000000,0.0,0.00,0.0
3546.312,-1.0497,7.9263,5.5223,0.011002,-0.020844,0.002396,26.3336,-19.6960,-29.5868,0.000000,0.000000,0.0,0.00,0.0
3546.315,-1.0712,7.9479,5.5869,0.009933,-0.020844,0.002396,26.3336,-19.6960,-29.5868,0.000000,0.000000,0.0,0.00,0.0
3546.317,-1.0521,7.9072,5.6109,0.009933,-0.021912,0.002396,26.3336,-19.6960,-29.5868,0.000000,0.000000,0.0,0.00,0.0
3546.319,-1.1120,7.9216,5.5989,0.006744,-0.018707,0.003464,26.3336,-19.6960,-29.5868,0.000000,0.000000,0.0,0.00,0.0
3546.322,-1.1479,7.9072,5.5941,0.005676,-0.016586,0.004532,26.3306,-20.4559,-29.2999,0.000000,0.000000,0.0,0.00,0.0
3546.324,-1.1215,7.8904,5.6324,0.007813,-0.014450,0.006668,26.3306,-20.4559,-29.2999,0.000000,0.000000,0.0,0.00,0.0
3546.327,-1.0880,7.9335,5.6156,0.009933,-0.014450,0.005600,26.3306,-20.4559,-29.2999,0.000000,0.000000,0.0,0.00,0.0
3546.330,-1.0617,7.9192,5.5989,0.012070,-0.014450,0.005600,26.3306,-20.4559,-29.2999,0.000000,0.000000,0.0,0.00,0.0
3546.332,-1.0521,7.9383,5.5510,0.011002,-0.013382,0.006668,26.3306,-20.4559,-29.2999,0.000000,0.000000,0.0,0.00,0.0
3546.335,-1.0760,7.9479,5.5534,0.012070,-0.015518,0.009857,26.3306,-20.4559,-29.2999,0.000000,0.000000,0.0,0.00,0.0
3546.337,-1.0258,7.9455,5.4887,0.013138,-0.016586,0.008789,26.3306,-20.4559,-29.2999,0.000000,0.000000,0.0,0.00,0.0
3546.340,-1.0545,7.9120,5.4864,0.011002,-0.018707,0.009857,26.3306,-20.4559,-29.2999,0.000000,0.000000,0.0,0.00,0.0
3546.342,-1.0401,7.8952,5.5007,0.012070,-0.016586,0.008789,26.1795,-20.3049,-29.4479,0.000000,0.000000,0.0,0.00,0.0
3546.344,-1.0569,7.9527,5.4720,0.008881,-0.016586,0.011993,26.1795,-20.3049,-29.4479,0.000000,0.000000,0.0,0.00,0.0
3546.347,-1.0449,7.9168,5.4145,0.006744,-0.018707,0.009857,26.1795,-20.3049,-29.4479,0.000000,0.000000,0.0,0.00,0.0
3546.350,-1.0282,7.9479,5.4097,0.007813,-0.024048,0.009857,26.1795,-20.3049,-29.4479,0.000000,0.000000,0.0,0.00,0.0
3546.352,-1.0928,7.9120,5.4648,0.007813,-0.022980,0.010925,26.1795,-20.3049,-29.4479,0.000000,0.000000,0.0,0.00,0.0
3546.355,-1.1120,7.9144,5.4816,0.006744,-0.026169,0.009857,26.1795,-20.3049,-29.4479,0.000000,0.000000,0.0,0.00,0.0
3546.357,-1.0784,7.9359,5.4504,0.006744,-0.028305,0.009857,26.1795,-20.3049,-29.4479,0.000000,0.000000,0.0,0.00,0.0
3546.360,-1.0784,7.9575,5.5031,0.005676,-0.027237,0.010925,26.1795,-20.3049,-29.4479,0.000000,0.000000,0.0,0.00,0.0
3546.362,-1.0808,7.8880,5.4887,0.006744,-0.031494,0.011993,27.2507,-19.2322,-29.4235,0.000000,0.000000,0.0,0.00,0.0
3546.365,-1.0641,7.9479,5.4696,0.006744,-0.032562,0.013046,27.2507,-19.2322,-29.4235,0.000000,0.000000,0.0,0.00,0.0
3546.367,-1.0641,7.9120,5.3930,0.007813,-0.032562,0.013046,27.2507,-19.2322,-29.4235,0.000000,0.000000,0.0,0.00,0.0
3546.370,-1.0808,7.9311,5.3188,0.011002,-0.035751,0.010925,27.2507,-19.2322,-29.4235,0.000000,0.000000,0.0,0.00,0.0
3546.372,-1.0904,7.9287,5.3595,0.006744,-0.044281,0.008789,27.2507,-19.2322,-29.4235,0.000000,0.000000,0.0,0.00,0.0
3546.375,-1.1024,7.9311,5.4983,0.001419,-0.049606,0.007721,27.2507,-19.2322,-29.4235,0.000000,0.000000,0.0,0.00,0.0
3546.377,-1.0449,7.9647,5.5414,0.002487,-0.054932,0.007721,27.2507,-19.2322,-29.4235,0.000000,0.000000,0.0,0.00,0.0
3546.379,-1.0066,7.9671,5.5869,0.002487,-0.054932,0.008789,27.2507,-19.2322,-29.4235,0.000000,0.000000,0.0,0.00,0.0
3546.382,-1.0617,7.9287,5.5749,0.001419,-0.051743,0.008789,25.5753,-19.0933,-29.2694,0.000000,0.000000,0.0,0.00,0.0
3546.385,-1.0904,7.9311,5.5941,0.002487,-0.050674,0.011993,25.5753,-19.0933,-29.2694,0.000000,0.000000,0.0,0.00,0.0
3546.387,-1.0832,7.9287,5.6228,0.001419,-0.048538,0.013046,25.5753,-19.0933,-29.2694,0.000000,0.000000,0.0,0.00,0.0
3546.390,-1.0401,7.9527,5.5701,0.001419,-0.046417,0.009857,25.5753,-19.0933,-29.2694,0.000000,0.000000,0.0,0.00,0.0
3546.393,-1.0928,7.9168,5.6085,0.006744,-0.045349,0.014114,25.5753,-19.0933,-29.2694,0.000000,0.000000,0.0,0.00,0.0
3546.395,-1.0665,7.9192,5.6061,0.006744,-0.043213,0.014114,25.5753,-19.0933,-29.2694,0.000000,0.000000,0.0,0.00,0.0
3546.398,-1.0234,7.9455,5.5821,0.008881,-0.037888,0.016251,25.5753,-19.0933,-29.2694,0.000000,0.000000,0.0,0.00,0.0
3546.400,-1.0401,7.9623,5.5414,0.007813,-0.033630,0.014114,25.5753,-19.0933,-29.2694,0.000000,0.000000,0.0,0.00,0.0
3546.402,-1.0401,7.9718,5.5821,0.008881,-0.033630,0.014114,24.6613,-18.7988,-29.7211,0.000000,0.000000,0.0,0.00,0.0
3546.405,-1.0042,7.9718,5.5486,0.011002,-0.030426,0.014114,24.6613,-18.7988,-29.7211,0.000000,0.000000,0.0,0.00,0.0
3546.407,-0.9827,7.9910,5.5175,0.007813,-0.030426,0.014114,24.6613,-18.7988,-29.7211,0.000000,0.000000,0.0,0.00,0.0
3546.410,-1.0162,8.0125,5.5701,0.006744,-0.031494,0.011993,24.6613,-18.7988,-29.7211,0.000000,0.000000,0.0,0.00,0.0
3546.412,-0.9970,7.9503,5.5797,0.007813,-0.029373,0.011993,24.6613,-18.7988,-29.7211,0.000000,0.000000,0.0,0.00,0.0
3546.415,-0.9922,7.9790,5.5510,0.004608,-0.028305,0.013046,24.6613,-18.7988,-29.7211,0.000000,0.000000,0.0,0.00,0.0
3546.418,-1.0114,7.9766,5.4983,0.004608,-0.027237,0.009857,24.6613,-18.7988,-29.7211,0.000000,0.000000,0.0,0.00,0.0
3546.420,-0.9563,7.9790,5.5294,0.004608,-0.025101,0.009857,24.6613,-18.7988,-29.7211,0.000000,0.000000,0.0,0.00,0.0
3546.422,-0.9659,7.9599,5.5079,-0.000717,-0.021912,0.010925,27.8610,-19.3756,-27.7481,0.000000,0.000000,0.0,0.00,0.0
3546.425,-0.9779,7.9503,5.5797,0.000351,-0.022980,0.007721,27.8610,-19.3756,-27.7481,0.000000,0.000000,0.0,0.00,0.0
3546.428,-0.9611,7.9742,5.5654,-0.001770,-0.020844,0.009857,27.8610,-19.3756,-27.7481,0.000000,0.000000,0.0,0.00,0.0
3546.430,-0.9755,7.9599,5.4744,-0.000717,-0.016586,0.008789,27.8610,-19.3756,-27.7481,0.000000,0.000000,0.0,0.00,0.0
3546.433,-0.9515,8.0054,5.5175,0.000351,-0.012329,0.007721,27.8610,-19.3756,-27.7481,0.000000,0.000000,0.0,0.00,0.0
3546.436,-0.9467,7.9742,5.4744,-0.006042,-0.016586,0.004532,27.8610,-19.3756,-27.7481,0.000000,0.000000,0.0,0.00,0.0
3546.438,-0.9539,7.9766,5.5510,-0.006042,-0.014450,0.003464,27.8610,-19.3756,-27.7481,0.000000,0.000000,0.0,0.00,0.0
3546.440,-0.9827,7.9671,5.5390,-0.006042,-0.014450,0.002396,27.8610,-19.3756,-27.7481,0.000000,0.000000,0.0,0.00,0.0
3546.443,-0.9851,7.9479,5.5271,-0.010300,-0.015518,0.002396,24.4904,-22.6013,-30.4169,0.000000,0.000000,0.0,0.00,0.0
3546.445,-1.0210,7.9263,5.4959,-0.011368,-0.015518,0.002396,24.4904,-22.6013,-30.4169,0.000000,0.000000,0.0,0.00,0.0
3546.448,-1.0521,7.9431,5.4935,-0.008163,-0.014450,0.001343,24.4904,-22.6013,-30.4169,0.000000,0.000000,0.0,0.00,0.0
3546.450,-0.9851,7.9168,5.5342,-0.008163,-0.017654,0.001343,24.4904,-22.6013,-30.4169,0.000000,0.000000,0.0,0.00,0.0
3546.453,-1.0186,7.9383,5.5294,-0.008163,-0.019775,0.000275,24.4904,-22.6013,-30.4169,0.000000,0.000000,0.0,0.00,0.0
3546.455,-1.0114,7.9479,5.5558,-0.009232,-0.019775,-0.000793,24.4904,-22.6013,-30.4169,0.000000,0.000000,0.0,0.00,0.0
3546.458,-1.0090,7.9766,5.5821,-0.009232,-0.016586,-0.000793,24.4904,-22.6013,-30.4169,0.000000,0.000000,0.0,0.00,0.0
3546.460,-1.0282,7.9790,5.5199,-0.008163,-0.013382,-0.001862,24.4904,-22.6013,-30.4169,0.000000,0.000000,0.0,0.00,0.0
3546.463,-0.9922,7.9575,5.4816,-0.004974,-0.014450,-0.000793,25.4257,-18.7897,-28.6530,0.000000,0.000000,0.0,0.00,0.0
3546.465,-1.0305,7.9575,5.5031,-0.000717,-0.017654,-0.000793,25.4257,-18.7897,-28.6530,0.000000,0.000000,0.0,0.00,0.0
3546.468,-1.0138,7.9551,5.4887,-0.001770,-0.010193,-0.000793,25.4257,-18.7897,-28.6530,0.000000,0.000000,0.0,0.00,0.0
3546.471,-1.0042,7.9311,5.5318,-0.003906,-0.005936,-0.000793,25.4257,-18.7897,-28.6530,0.000000,0.000000,0.0,0.00,0.0
3546.473,-0.9875,7.9359,5.5055,-0.000717,-0.010193,-0.000793,25.4257,-18.7897,-28.6530,0.000000,0.000000,0.0,0.00,0.0
3546.477,-1.0018,7.9192,5.5151,-0.002838,-0.010193,-0.001862,25.4257,-18.7897,-28.6530,0.000000,0.000000,0.0,0.00,0.0
3546.478,-0.9899,7.9144,5.5486,-0.002838,-0.008057,-0.000793,25.4257,-18.7897,-28.6530,0.000000,0.000000,0.0,0.00,0.0
3546.481,-0.9755,7.9287,5.5318,-0.006042,-0.007004,-0.000793,25.4257,-18.7897,-28.6530,0.000000,0.000000,0.0,0.00,0.0
3546.483,-0.9396,7.9383,5.5414,-0.003906,-0.013382,0.000275,25.5737,-19.0979,-30.9464,0.000000,0.000000,0.0,0.00,0.0
3546.486,-0.9755,7.9647,5.5749,-0.002838,-0.012329,-0.000793,25.5737,-19.0979,-30.9464,0.000000,0.000000,0.0,0.00,0.0
3546.488,-0.9875,7.9838,5.5366,-0.003906,-0.014450,-0.001862,25.5737,-19.0979,-30.9464,0.000000,0.000000,0.0,0.00,0.0
3546.491,-1.0282,7.9072,5.5773,-0.003906,-0.016586,-0.002930,25.5737,-19.0979,-30.9464,0.000000,0.000000,0.0,0.00,0.0
3546.493,-1.0521,7.9072,5.5031,-0.003906,-0.016586,-0.002930,25.5737,-19.0979,-30.9464,0.000000,0.000000,0.0,0.00,0.0
3546.496,-1.0018,7.8976,5.5749,-0.008163,-0.018707,-0.002930,25.5737,-19.0979,-30.9464,0.000000,0.000000,0.0,0.00,0.0
3546.498,-1.0210,7.9431,5.6324,-0.006042,-0.020844,-0.000793,25.5737,-19.0979,-30.9464,0.000000,0.000000,0.0,0.00,0.0
3546.501,-1.0329,7.9814,5.6013,-0.006042,-0.020844,0.003464,25.5737,-19.0979,-30.9464,0.000000,0.000000,0.0,0.00,0.0
3546.503,-1.0090,7.9527,5.6037,-0.009232,-0.020844,0.001343,27.3941,-21.2051,-28.8574,0.000000,0.000000,0.0,0.00,0.0
3546.505,-1.0090,7.9048,5.6061,-0.009232,-0.021912,0.001343,27.3941,-21.2051,-28.8574,0.000000,0.000000,0.0,0.00,0.0
3546.508,-1.0042,7.9527,5.5821,-0.007111,-0.024048,0.005600,27.3941,-21.2051,-28.8574,0.000000,0.000000,0.0,0.00,0.0
3546.511,-1.0569,7.9671,5.6276,-0.007111,-0.026169,0.006668,27.3941,-21.2051,-28.8574,0.000000,0.000000,0.0,0.00,0.0
3546.513,-0.9994,7.9240,5.5821,-0.002838,-0.026169,0.005600,27.3941,-21.2051,-28.8574,0.000000,0.000000,0.0,0.00,0.0
3546.516,-1.0162,7.9216,5.6085,-0.000717,-0.025101,0.005600,27.3941,-21.2051,-28.8574,0.000000,0.000000,0.0,0.00,0.0
3546.518,-0.9922,7.9000,5.6803,-0.001770,-0.021912,0.005600,27.3941,-21.2051,-28.8574,0.000000,0.000000,0.0,0.00,0.0
3546.521,-0.9875,7.9240,5.6899,-0.004974,-0.022980,0.003464,27.3941,-21.2051,-28.8574,0.000000,0.000000,0.0,0.00,0.0
3546.523,-1.0641,7.9407,5.6970,0.001419,-0.017654,0.005600,25.8835,-18.4814,-28.6453,0.000000,0.000000,0.0,0.00,0.0
3546.526,-1.0497,7.9718,5.6755,0.003555,-0.015518,0.007721,25.8835,-18.4814,-28.6453,0.000000,0.000000,0.0,0.00,0.0
3546.528,-1.0497,7.9503,5.6516,0.006744,-0.011261,0.009857,25.8835,-18.4814,-28.6453,0.000000,0.000000,0.0,0.00,0.0
3546.531,-1.0425,7.9718,5.6587,0.007813,-0.010193,0.009857,25.8835,-18.4814,-28.6453,0.000000,0.000000,0.0,0.00,0.0
3546.534,-1.0521,7.9766,5.6420,0.015274,-0.003799,0.007721,25.8835,-18.4814,-28.6453,0.000000,0.000000,0.0,0.00,0.0
3546.536,-1.0497,7.9551,5.6037,0.014206,-0.001663,0.010925,25.8835,-18.4814,-28.6453,0.000000,0.000000,0.0,0.00,0.0
3546.539,-1.0234,7.9455,5.5965,0.011002,-0.001663,0.011993,25.8835,-18.4814,-28.6453,0.000000,0.000000,0.0,0.00,0.0
3546.541,-1.0162,7.9671,5.5510,0.013138,-0.001663,0.011993,25.8835,-18.4814,-28.6453,0.000000,0.000000,0.0,0.00,0.0
3546.543,-1.0210,7.9766,5.5654,0.015274,-0.000610,0.010925,27.0905,-20.9045,-29.3091,0.000000,0.000000,0.0,0.00,0.0
3546.546,-0.9851,7.9886,5.5893,0.015274,-0.000610,0.009857,27.0905,-20.9045,-29.3091,0.000000,0.000000,0.0,0.00,0.0
3546.549,-0.9994,7.9766,5.5414,0.013138,0.001526,0.010925,27.0905,-20.9045,-29.3091,0.000000,0.000000,0.0,0.00,0.0
3546.551,-0.9731,7.9694,5.5127,0.016327,0.001526,0.010925,27.0905,-20.9045,-29.3091,0.000000,0.000000,0.0,0.00,0.0
3546.554,-1.0018,7.9575,5.5007,0.016327,0.002594,0.008789,27.0905,-20.9045,-29.3091,0.000000,0.000000,0.0,0.00,0.0
3546.556,-1.0042,7.9934,5.5031,0.015274,0.001526,0.007721,27.0905,-20.9045,-29.3091,0.000000,0.000000,0.0,0.00,0.0
3546.559,-1.0114,7.9766,5.5294,0.012070,0.003662,0.009857,27.0905,-20.9045,-29.3091,0.000000,0.000000,0.0,0.00,0.0
3546.561,-0.9683,7.9383,5.5510,0.012070,0.004715,0.007721,27.2461,-20.2942,-28.6850,0.000000,0.000000,0.0,0.00,0.0
3546.563,-0.9994,7.9240,5.5342,0.009933,0.003662,0.005600,27.2461,-20.2942,-28.6850,0.000000,0.000000,0.0,0.00,0.0
3546.566,-0.9635,7.9718,5.5294,0.006744,-0.001663,0.004532,27.2461,-20.2942,-28.6850,0.000000,0.000000,0.0,0.00,0.0
3546.568,-0.9611,8.0125,5.5534,0.008881,-0.002731,0.005600,27.2461,-20.2942,-28.6850,0.000000,0.000000,0.0,0.00,0.0
3546.571,-0.9491,7.9790,5.5654,0.006744,-0.000610,0.004532,27.2461,-20.2942,-28.6850,0.000000,0.000000,0.0,0.00,0.0
3546.573,-0.9444,7.9623,5.5677,0.004608,-0.002731,0.002396,27.2461,-20.2942,-28.6850,0.000000,0.000000,0.0,0.00,0.0
3546.576,-0.9899,7.9671,5.5773,0.006744,-0.000610,0.002396,27.2461,-20.2942,-28.6850,0.000000,0.000000,0.0,0.00,0.0
3546.579,-1.0521,7.9216,5.5941,0.004608,0.001526,0.000275,27.2461,-20.2942,-28.6850,0.000000,0.000000,0.0,0.00,0.0
3546.581,-1.0521,7.9335,5.5677,0.005676,0.002594,0.000275,25.2701,-19.4000,-28.8193,0.000000,0.000000,0.0,0.00,0.0
3546.583,-1.0377,7.9120,5.5366,0.004608,-0.000610,0.001343,25.2701,-19.4000,-28.8193,0.000000,0.000000,0.0,0.00,0.0
3546.587,-1.0665,7.9455,5.5606,0.004608,0.002594,0.000275,25.2701,-19.4000,-28.8193,0.000000,0.000000,0.0,0.00,0.0
3546.589,-1.0617,7.9263,5.5797,0.004608,0.005783,0.000275,25.2701,-19.4000,-28.8193,0.000000,0.000000,0.0,0.00,0.0
3546.592,-1.0473,7.9311,5.5103,0.005676,0.002594,0.001343,25.2701,-19.4000,-28.8193,0.000000,0.000000,0.0,0.00,0.0
3546.594,-1.0305,7.9335,5.5055,0.006744,0.004715,0.002396,25.2701,-19.4000,-28.8193,0.000000,0.000000,0.0,0.00,0.0
3546.597,-1.0042,7.9192,5.5462,0.003555,0.003662,0.000275,25.2701,-19.4000,-28.8193,0.000000,0.000000,0.0,0.00,0.0
3546.599,-1.0377,7.9575,5.5510,0.004608,-0.000610,0.002396,25.2701,-19.4000,-28.8193,0.000000,0.000000,0.0,0.00,0.0
3546.601,-1.0353,7.9287,5.5342,0.007813,-0.002731,0.001343,25.2640,-20.4651,-29.6051,0.000000,0.000000,0.0,0.00,0.0
3546.604,-1.0114,7.9575,5.5366,0.005676,-0.008057,0.002396,25.2640,-20.4651,-29.6051,0.000000,0.000000,0.0,0.00,0.0
3546.606,-1.0353,7.9958,5.5606,0.008881,-0.002731,0.000275,25.2640,-20.4651,-29.6051,0.000000,0.000000,0.0,0.00,0.0
3546.609,-1.0473,7.9838,5.5199,0.006744,-0.003799,-0.001862,25.2640,-20.4651,-29.6051,0.000000,0.000000,0.0,0.00,0.0
3546.611,-1.0114,7.9934,5.4983,0.004608,-0.007004,0.000275,25.2640,-20.4651,-29.6051,0.000000,0.000000,0.0,0.00,0.0
3546.614,-1.0401,7.9359,5.5271,0.000351,-0.005936,0.002396,25.2640,-20.4651,-29.6051,0.000000,0.000000,0.0,0.00,0.0
3546.617,-1.0569,7.9168,5.5247,0.002487,-0.009125,0.002396,25.2640,-20.4651,-29.6051,0.000000,0.000000,0.0,0.00,0.0
3546.619,-1.0569,7.9407,5.4720,0.002487,-0.003799,0.001343,25.2640,-20.4651,-29.6051,0.000000,0.000000,0.0,0.00,0.0
3546.621,-1.0449,7.9790,5.4624,0.001419,-0.001663,0.001343,26.3245,-21.5210,-30.3909,0.000000,0.000000,0.0,0.00,0.0
3546.624,-1.0617,7.8928,5.4241,-0.002838,-0.007004,0.001343,26.3245,-21.5210,-30.3909,0.000000,0.000000,0.0,0.00,0.0
3546.626,-1.0401,7.9096,5.4720,-0.000717,-0.010193,-0.001862,26.3245,-21.5210,-30.3909,0.000000,0.000000,0.0,0.00,0.0
3546.629,-1.0186,7.9263,5.4576,-0.003906,-0.015518,0.001343,26.3245,-21.5210,-30.3909,0.000000,0.000000,0.0,0.00,0.0
3546.632,-0.9922,7.9192,5.4576,-0.007111,-0.017654,0.001343,26.3245,-21.5210,-30.3909,0.000000,0.000000,0.0,0.00,0.0
3546.634,-1.0353,7.9407,5.4480,-0.006042,-0.019775,0.000275,26.3245,-21.5210,-30.3909,0.000000,0.000000,0.0,0.00,0.0
3546.636,-1.0042,7.9647,5.5438,-0.004974,-0.021912,-0.000793,26.3245,-21.5210,-30.3909,0.000000,0.000000,0.0,0.00,0.0
3546.639,-0.9875,7.9934,5.5462,-0.007111,-0.022980,-0.000793,26.3245,-21.5210,-30.3909,0.000000,0.000000,0.0,0.00,0.0
3546.641,-0.9683,7.9862,5.5534,-0.006042,-0.018707,0.000275,25.1099,-20.6192,-29.7623,0.000000,0.000000,0.0,0.00,0.0
3546.644,-1.0114,7.9575,5.6061,-0.007111,-0.018707,-0.000793,25.1099,-20.6192,-29.7623,0.000000,0.000000,0.0,0.00,0.0
3546.647,-0.9875,7.9431,5.5725,-0.012436,-0.015518,-0.001862,25.1099,-20.6192,-29.7623,0.000000,0.000000,0.0,0.00,0.0
3546.649,-1.0329,7.9335,5.6372,-0.009232,-0.012329,-0.000793,25.1099,-20.6192,-29.7623,0.000000,0.000000,0.0,0.00,0.0
3546.651,-1.0497,7.9359,5.6204,-0.006042,-0.011261,-0.002930,25.1099,-20.6192,-29.7623,0.000000,0.000000,0.0,0.00,0.0
3546.655,-1.0449,7.9527,5.5965,-0.007111,-0.007004,-0.001862,25.1099,-20.6192,-29.7623,0.000000,0.000000,0.0,0.00,0.0
3546.657,-1.0377,7.9383,5.5725,-0.002838,-0.001663,-0.001862,25.1099,-20.6192,-29.7623,0.000000,0.000000,0.0,0.00,0.0
3546.659,-1.0545,7.8904,5.5749,-0.002838,-0.000610,-0.000793,25.1099,-20.6192,-29.7623,0.000000,0.000000,0.0,0.00,0.0
3546.661,-1.0186,7.8833,5.5749,-0.000717,0.000458,-0.001862,24.5026,-20.4697,-28.8437,0.000000,0.000000,0.0,0.00,0.0
3546.664,-1.0090,7.9527,5.5462,0.002487,0.002594,0.003464,24.5026,-20.4697,-28.8437,0.000000,0.000000,0.0,0.00,0.0
3546.667,-0.9779,7.9503,5.5414,0.002487,0.002594,0.004532,24.5026,-20.4697,-28.8437,0.000000,0.000000,0.0,0.00,0.0
3546.670,-0.9515,7.9694,5.5247,0.001419,0.006851,0.003464,24.5026,-20.4697,-28.8437,0.000000,0.000000,0.0,0.00,0.0
3546.672,-0.9515,7.9958,5.5438,0.002487,0.008987,0.004532,24.5026,-20.4697,-28.8437,0.000000,0.000000,0.0,0.00,0.0
3546.677,-0.9683,7.9287,5.5342,0.001419,0.010056,0.002396,24.5026,-20.4697,-28.8437,0.000000,0.000000,0.0,0.00,0.0
3546.677,-0.9803,7.9551,5.5151,-0.000717,0.015381,0.001343,24.5026,-20.4697,-28.8437,0.000000,0.000000,0.0,0.00,0.0
3546.680,-0.9611,7.9742,5.5127,-0.000717,0.012177,0.000275,24.5026,-20.4697,-28.8437,0.000000,0.000000,0.0,0.00,0.0
3546.681,-0.9683,7.9240,5.4696,-0.001770,0.011108,-0.001862,25.5661,-21.2204,-28.8605,0.000000,0.000000,0.0,0.00,0.0
3546.684,-1.0042,7.9216,5.5294,-0.003906,0.017502,-0.000793,25.5661,-21.2204,-28.8605,0.000000,0.000000,0.0,0.00,0.0
3546.687,-0.9779,7.9383,5.5199,-0.006042,0.013245,0.000275,25.5661,-21.2204,-28.8605,0.000000,0.000000,0.0,0.00,0.0
3546.690,-0.9994,7.8737,5.4744,-0.006042,0.013245,0.000275,25.5661,-21.2204,-28.8605,0.000000,0.000000,0.0,0.00,0.0
3546.692,-0.9851,7.8880,5.4241,-0.007111,0.008987,-0.001862,25.5661,-21.2204,-28.8605,0.000000,0.000000,0.0,0.00,0.0
3546.695,-1.0138,7.9168,5.3930,-0.009232,0.004715,-0.002930,25.5661,-21.2204,-28.8605,0.000000,0.000000,0.0,0.00,0.0
3546.697,-0.9946,7.9383,5.4169,-0.009232,0.001526,-0.002930,25.5661,-21.2204,-28.8605,0.000000,0.000000,0.0,0.00,0.0
3546.700,-0.9970,7.9192,5.4313,-0.012436,-0.000610,-0.003998,25.5661,-21.2204,-28.8605,0.000000,0.000000,0.0,0.00,0.0
3546.702,-1.0018,7.9144,5.3882,-0.011368,-0.003799,-0.002930,26.4877,-19.2413,-30.7968,0.000000,0.000000,0.0,0.00,0.0
3546.704,-1.0042,7.9000,5.4169,-0.010300,-0.011261,-0.001862,26.4877,-19.2413,-30.7968,0.000000,0.000000,0.0,0.00,0.0
3546.707,-1.0018,7.9120,5.4456,-0.014557,-0.014450,-0.002930,26.4877,-19.2413,-30.7968,0.000000,0.000000,0.0,0.00,0.0
3546.710,-1.0018,7.9407,5.5007,-0.011368,-0.018707,-0.003998,26.4877,-19.2413,-30.7968,0.000000,0.000000,0.0,0.00,0.0
3546.712,-1.0090,7.9599,5.5462,-0.011368,-0.018707,-0.001862,26.4877,-19.2413,-30.7968,0.000000,0.000000,0.0,0.00,0.0
3546.715,-1.0042,7.9718,5.5294,-0.015625,-0.018707,-0.001862,26.4877,-19.2413,-30.7968,0.000000,0.000000,0.0,0.00,0.0
3546.717,-1.0114,7.9407,5.5558,-0.010300,-0.015518,-0.001862,26.4877,-19.2413,-30.7968,0.000000,0.000000,0.0,0.00,0.0
3546.720,-1.0162,7.9694,5.5989,-0.011368,-0.017654,-0.001862,26.4877,-19.2413,-30.7968,0.000000,0.000000,0.0,0.00,0.0
3546.722,-0.9946,7.9527,5.5079,-0.009232,-0.012329,-0.005051,26.4908,-19.2368,-28.3569,0.000000,0.000000,0.0,0.00,0.0
3546.724,-1.0234,7.9359,5.5366,-0.006042,-0.008057,-0.005051,26.4908,-19.2368,-28.3569,0.000000,0.000000,0.0,0.00,0.0
3546.727,-1.0329,7.9455,5.5606,-0.006042,-0.011261,-0.000793,26.4908,-19.2368,-28.3569,0.000000,0.000000,0.0,0.00,0.0
3546.730,-1.0377,7.9886,5.5438,-0.004974,-0.009125,-0.003998,26.4908,-19.2368,-28.3569,0.000000,0.000000,0.0,0.00,0.0
3546.732,-1.0473,7.9862,5.5390,-0.003906,-0.003799,-0.002930,26.4908,-19.2368,-28.3569,0.000000,0.000000,0.0,0.00,0.0
3546.735,-1.0186,7.9216,5.5725,-0.002838,-0.005936,-0.001862,26.4908,-19.2368,-28.3569,0.000000,0.000000,0.0,0.00,0.0
3546.737,-1.0042,7.9431,5.5917,-0.002838,-0.004868,-0.002930,26.4908,-19.2368,-28.3569,0.000000,0.000000,0.0,0.00,0.0
3546.740,-0.9611,7.9647,5.6037,0.000351,-0.005936,0.000275,26.4908,-19.2368,-28.3569,0.000000,0.000000,0.0,0.00,0.0
3546.742,-0.9467,7.9192,5.5749,-0.001770,-0.004868,0.001343,26.1795,-20.3033,-28.3813,0.000000,0.000000,0.0,0.00,0.0
3546.745,-0.9755,7.9790,5.5821,0.001419,-0.004868,0.002396,26.1795,-20.3033,-28.3813,0.000000,0.000000,0.0,0.00,0.0
3546.747,-0.9994,7.9910,5.5438,-0.001770,-0.005936,0.004532,26.1795,-20.3033,-28.3813,0.000000,0.000000,0.0,0.00,0.0
3546.750,-0.9635,7.9599,5.5630,0.001419,-0.009125,0.004532,26.1795,-20.3033,-28.3813,0.000000,0.000000,0.0,0.00,0.0
3546.752,-0.9899,7.9311,5.5366,-0.001770,-0.001663,0.000275,26.1795,-20.3033,-28.3813,0.000000,0.000000,0.0,0.00,0.0
3546.755,-1.0162,7.9359,5.5127,-0.002838,0.000458,0.000275,26.1795,-20.3033,-28.3813,0.000000,0.000000,0.0,0.00,0.0
3546.758,-1.0042,7.9192,5.5821,-0.004974,-0.004868,0.002396,26.1795,-20.3033,-28.3813,0.000000,0.000000,0.0,0.00,0.0
3546.760,-1.0569,7.9192,5.5677,-0.007111,-0.003799,0.001343,26.1795,-20.3033,-28.3813,0.000000,0.000000,0.0,0.00,0.0
3546.762,-1.0593,7.9359,5.5223,-0.006042,-0.005936,-0.000793,26.1795,-20.3033,-28.3813,0.000000,0.000000,0.0,0.00,0.0
3546.764,-1.0449,7.8904,5.5701,-0.003906,-0.007004,0.000275,26.1795,-20.3033,-28.3813,0.000000,0.000000,0.0,0.00,0.0
3546.768,-1.0617,7.9335,5.6085,-0.003906,-0.008057,0.000275,26.1795,-20.3033,-28.3813,0.000000,0.000000,0.0,0.00,0.0
3546.770,-1.0712,7.9240,5.6013,-0.003906,-0.012329,0.002396,26.1795,-20.3033,-28.3813,0.000000,0.000000,0.0,0.00,0.0
3546.773,-1.0688,7.9096,5.6085,-0.006042,-0.009125,0.002396,26.1795,-20.3033,-28.3813,0.000000,0.000000,0.0,0.00,0.0
3546.775,-1.0617,7.9527,5.6492,-0.002838,-0.011261,0.002396,26.1795,-20.3033,-28.3813,0.000000,0.000000,0.0,0.00,0.0
3546.777,-1.0210,7.9671,5.7018,0.000351,-0.007004,0.005600,26.1795,-20.3033,-28.3813,0.000000,0.000000,0.0,0.00,0.0
3546.780,-1.0066,7.9934,5.7018,0.001419,-0.000610,0.003464,26.1795,-20.3033,-28.3813,0.000000,0.000000,0.0,0.00,0.0
3546.782,-1.0186,7.9982,5.6851,0.002487,0.000458,0.006668,25.1114,-20.3156,-30.5176,0.000000,0.000000,0.0,0.00,0.0
3546.785,-1.0114,7.9766,5.6156,0.005676,0.002594,0.010925,25.1114,-20.3156,-30.5176,0.000000,0.000000,0.0,0.00,0.0
3546.787,-0.9827,7.9192,5.5725,0.005676,0.001526,0.006668,25.1114,-20.3156,-30.5176,0.000000,0.000000,0.0,0.00,0.0
3546.790,-1.0305,7.9431,5.5677,0.001419,0.001526,0.007721,25.1114,-20.3156,-30.5176,0.000000,0.000000,0.0,0.00,0.0
3546.793,-1.0473,7.9287,5.5247,0.003555,0.000458,0.006668,25.1114,-20.3156,-30.5176,0.000000,0.000000,0.0,0.00,0.0
3546.795,-1.0329,7.9359,5.5079,0.004608,0.000458,0.006668,25.1114,-20.3156,-30.5176,0.000000,0.000000,0.0,0.00,0.0
3546.798,-1.0234,7.9335,5.5007,0.003555,-0.002731,0.003464,25.1114,-20.3156,-30.5176,0.000000,0.000000,0.0,0.00,0.0
3546.800,-1.0784,7.9551,5.4983,0.001419,-0.004868,0.003464,25.1114,-20.3156,-30.5176,0.000000,0.000000,0.0,0.00,0.0
3546.802,-1.0593,7.9623,5.5247,-0.000717,-0.010193,0.004532,26.9455,-19.2352,-29.7287,0.000000,0.000000,0.0,0.00,0.0
3546.805,-1.0329,7.9120,5.5606,-0.000717,-0.014450,0.004532,26.9455,-19.2352,-29.7287,0.000000,0.000000,0.0,0.00,0.0
3546.808,-1.0066,7.9575,5.5677,0.000351,-0.016586,0.003464,26.9455,-19.2352,-29.7287,0.000000,0.000000,0.0,0.00,0.0
3546.810,-1.0066,7.9599,5.5654,0.000351,-0.017654,0.002396,26.9455,-19.2352,-29.7287,0.000000,0.000000,0.0,0.00,0.0
3546.813,-1.0138,7.9551,5.6468,0.000351,-0.017654,0.004532,26.9455,-19.2352,-29.7287,0.000000,0.000000,0.0,0.00,0.0
3546.815,-1.0162,7.9551,5.6085,0.004608,-0.019775,0.005600,26.9455,-19.2352,-29.7287,0.000000,0.000000,0.0,0.00,0.0
3546.818,-1.0234,7.9742,5.5797,0.000351,-0.016586,0.003464,26.9455,-19.2352,-29.7287,0.000000,0.000000,0.0,0.00,0.0
3546.820,-1.0186,7.9958,5.5941,0.000351,-0.011261,0.003464,26.9455,-19.2352,-29.7287,0.000000,0.000000,0.0,0.00,0.0
3546.823,-1.0258,7.9527,5.5845,0.004608,-0.012329,0.003464,26.3290,-20.9091,-28.5477,0.000000,0.000000,0.0,0.00,0.0
3546.825,-0.9946,7.9671,5.6204,0.003555,-0.010193,0.004532,26.3290,-20.9091,-28.5477,0.000000,0.000000,0.0,0.00,0.0
3546.828,-0.9731,7.9455,5.6180,0.002487,-0.012329,0.003464,26.3290,-20.9091,-28.5477,0.000000,0.000000,0.0,0.00,0.0
3546.831,-0.9707,7.9407,5.6899,0.001419,-0.011261,0.005600,26.3290,-20.9091,-28.5477,0.000000,0.000000,0.0,0.00,0.0
3546.833,-0.9444,7.9718,5.6396,0.003555,-0.005936,0.003464,26.3290,-20.9091,-28.5477,0.000000,0.000000,0.0,0.00,0.0
3546.836,-0.9635,7.9527,5.6492,0.006744,-0.003799,0.004532,26.3290,-20.9091,-28.5477,0.000000,0.000000,0.0,0.00,0.0
3546.838,-0.9683,7.9886,5.5725,0.006744,0.000458,0.003464,26.3290,-20.9091,-28.5477,0.000000,0.000000,0.0,0.00,0.0
3546.841,-1.0138,7.9647,5.5941,0.005676,0.001526,0.003464,26.3290,-20.9091,-28.5477,0.000000,0.000000,0.0,0.00,0.0
3546.842,-0.9803,7.9694,5.5462,0.007813,0.005783,0.005600,26.3306,-20.4559,-29.2999,0.000000,0.000000,0.0,0.00,0.0
3546.845,-0.9994,7.9527,5.5318,0.009933,0.006851,0.003464,26.3306,-20.4559,-29.2999,0.000000,0.000000,0.0,0.00,0.0
3546.848,-1.0258,7.9551,5.5271,0.011002,0.006851,0.001343,26.3306,-20.4559,-29.2999,0.000000,0.000000,0.0,0.00,0.0
3546.851,-1.0234,7.9551,5.4840,0.008881,0.005783,0.003464,26.3306,-20.4559,-29.2999,0.000000,0.000000,0.0,0.00,0.0
3546.853,-1.0305,7.9766,5.4600,0.006744,0.005783,0.004532,26.3306,-20.4559,-29.2999,0.000000,0.000000,0.0,0.00,0.0
3546.856,-1.0521,7.9623,5.5103,0.004608,0.004715,0.005600,26.3306,-20.4559,-29.2999,0.000000,0.000000,0.0,0.00,0.0
3546.858,-0.9970,7.9240,5.4385,0.002487,0.005783,0.004532,26.3306,-20.4559,-29.2999,0.000000,0.000000,0.0,0.00,0.0
3546.861,-0.9587,7.9647,5.4672,0.002487,0.000458,0.004532,26.3306,-20.4559,-29.2999,0.000000,0.000000,0.0,0.00,0.0
3546.863,-1.0042,7.9503,5.5007,0.001419,-0.003799,0.001343,26.3275,-20.9137,-30.6824,0.000000,0.000000,0.0,0.00,0.0
3546.866,-1.0138,7.9168,5.5007,0.002487,-0.008057,0.003464,26.3275,-20.9137,-30.6824,0.000000,0.000000,0.0,0.00,0.0
3546.868,-0.9707,7.8880,5.4935,0.000351,-0.009125,0.002396,26.3275,-20.9137,-30.6824,0.000000,0.000000,0.0,0.00,0.0
3546.871,-0.9659,7.9120,5.5103,-0.001770,-0.009125,0.003464,26.3275,-20.9137,-30.6824,0.000000,0.000000,0.0,0.00,0.0
3546.873,-0.9755,7.8880,5.5031,-0.000717,-0.007004,0.002396,26.3275,-20.9137,-30.6824,0.000000,0.000000,0.0,0.00,0.0
3546.876,-0.9707,7.8809,5.5007,-0.002838,-0.003799,0.000275,26.3275,-20.9137,-30.6824,0.000000,0.000000,0.0,0.00,0.0
3546.878,-0.9851,7.8857,5.5821,-0.003906,-0.005936,0.001343,26.3275,-20.9137,-30.6824,0.000000,0.000000,0.0,0.00,0.0
3546.881,-0.9515,7.9311,5.5462,-0.001770,-0.010193,0.002396,26.3275,-20.9137,-30.6824,0.000000,0.000000,0.0,0.00,0.0
3546.883,-0.9803,7.9503,5.5965,-0.002838,-0.005936,0.001343,27.2446,-20.2972,-29.7531,0.000000,0.000000,0.0,0.00,0.0
3546.886,-0.9755,7.9718,5.5582,-0.003906,-0.008057,0.002396,27.2446,-20.2972,-29.7531,0.000000,0.000000,0.0,0.00,0.0
3546.888,-0.9635,8.0101,5.5438,-0.001770,-0.008057,0.002396,27.2446,-20.2972,-29.7531,0.000000,0.000000,0.0,0.00,0.0
3546.891,-0.9348,7.9790,5.4840,-0.001770,-0.011261,-0.000793,27.2446,-20.2972,-29.7531,0.000000,0.000000,0.0,0.00,0.0
3546.893,-0.9851,7.9623,5.5103,0.000351,-0.010193,-0.002930,27.2446,-20.2972,-29.7531,0.000000,0.000000,0.0,0.00,0.0
3546.896,-0.9707,8.0149,5.5247,0.000351,-0.008057,-0.001862,27.2446,-20.2972,-29.7531,0.000000,0.000000,0.0,0.00,0.0
3546.898,-0.9611,7.9934,5.4744,-0.000717,-0.005936,-0.001862,27.2446,-20.2972,-29.7531,0.000000,0.000000,0.0,0.00,0.0
3546.901,-0.9707,7.9886,5.5007,0.000351,-0.009125,-0.002930,25.4227,-19.5480,-27.9068,0.000000,0.000000,0.0,0.00,0.0
3546.904,-0.9827,7.9814,5.4887,-0.006042,-0.012329,-0.002930,25.4227,-19.5480,-27.9068,0.000000,0.000000,0.0,0.00,0.0
3546.906,-1.0210,7.9120,5.5175,-0.004974,-0.013382,-0.003998,25.4227,-19.5480,-27.9068,0.000000,0.000000,0.0,0.00,0.0
3546.909,-1.0282,7.9359,5.5893,-0.002838,-0.013382,-0.003998,25.4227,-19.5480,-27.9068,0.000000,0.000000,0.0,0.00,0.0
3546.911,-1.0329,7.9479,5.6013,-0.000717,-0.012329,-0.001862,25.4227,-19.5480,-27.9068,0.000000,0.000000,0.0,0.00,0.0
3546.914,-0.9922,7.9192,5.5965,-0.002838,-0.011261,-0.003998,25.4227,-19.5480,-27.9068,0.000000,0.000000,0.0,0.00,0.0
3546.916,-0.9755,7.9240,5.6180,-0.006042,-0.005936,-0.001862,25.4227,-19.5480,-27.9068,0.000000,0.000000,0.0,0.00,0.0
3546.919,-0.9970,7.9503,5.6156,-0.002838,-0.002731,-0.000793,25.4227,-19.5480,-27.9068,0.000000,0.000000,0.0,0.00,0.0
3546.921,-1.0569,7.9335,5.5821,-0.000717,-0.000610,-0.002930,26.1703,-22.1283,-29.0329,0.000000,0.000000,0.0,0.00,0.0
3546.923,-1.0353,7.9958,5.5893,-0.001770,0.002594,-0.003998,26.1703,-22.1283,-29.0329,0.000000,0.000000,0.0,0.00,0.0
3546.926,-1.0234,7.9527,5.6180,-0.002838,0.003662,-0.000793,26.1703,-22.1283,-29.0329,0.000000,0.000000,0.0,0.00,0.0
3546.929,-1.0377,7.9647,5.6013,-0.003906,0.011108,-0.001862,26.1703,-22.1283,-29.0329,0.000000,0.000000,0.0,0.00,0.0
3546.931,-1.0186,7.9503,5.5318,-0.000717,0.007919,-0.002930,26.1703,-22.1283,-29.0329,0.000000,0.000000,0.0,0.00,0.0
3546.934,-1.0162,7.9407,5.5534,-0.001770,0.011108,-0.000793,26.1703,-22.1283,-29.0329,0.000000,0.000000,0.0,0.00,0.0
3546.936,-1.0593,7.8928,5.5390,0.000351,0.017502,-0.001862,26.1703,-22.1283,-29.0329,0.000000,0.000000,0.0,0.00,0.0
3546.939,-1.0401,7.9431,5.5223,-0.001770,0.015381,0.002396,26.1703,-22.1283,-29.0329,0.000000,0.000000,0.0,0.00,0.0
3546.942,-1.0258,7.9120,5.5510,-0.000717,0.015381,0.001343,26.3290,-20.9091,-28.0899,0.000000,0.000000,0.0,0.00,0.0
3546.949,-1.0617,7.9168,5.5199,0.000351,0.015381,0.001343,26.3290,-20.9091,-28.0899,0.000000,0.000000,0.0,0.00,0.0
3546.950,-1.0377,7.9311,5.5199,-0.000717,0.017502,0.002396,26.3290,-20.9091,-28.0899,0.000000,0.000000,0.0,0.00,0.0
3546.950,-1.0258,7.9144,5.5725,-0.002838,0.018570,-0.000793,26.3290,-20.9091,-28.0899,0.000000,0.000000,0.0,0.00,0.0
3546.952,-0.9851,7.8785,5.5199,-0.004974,0.017502,-0.001862,26.3290,-20.9091,-28.0899,0.000000,0.000000,0.0,0.00,0.0
3546.953,-1.0114,7.9671,5.5294,-0.006042,0.015381,-0.001862,26.3290,-20.9091,-28.0899,0.000000,0.000000,0.0,0.00,0.0
3546.956,-1.0305,7.9599,5.4935,-0.006042,0.014313,-0.001862,26.3290,-20.9091,-28.0899,0.000000,0.000000,0.0,0.00,0.0
3546.959,-1.0018,7.9192,5.4433,-0.009232,0.012177,-0.001862,26.3290,-20.9091,-28.0899,0.000000,0.000000,0.0,0.00,0.0
3546.961,-1.0162,7.8904,5.4576,-0.009232,0.007919,-0.000793,25.4181,-20.0089,-30.2048,0.000000,0.000000,0.0,0.00,0.0
3546.964,-0.9970,7.9527,5.4600,-0.009232,0.007919,-0.001862,25.4181,-20.0089,-30.2048,0.000000,0.000000,0.0,0.00,0.0
3546.967,-0.9827,7.9503,5.4840,-0.011368,0.006851,-0.003998,25.4181,-20.0089,-30.2048,0.000000,0.000000,0.0,0.00,0.0
3546.969,-0.9946,7.9383,5.4265,-0.016693,0.003662,-0.005051,25.4181,-20.0089,-30.2048,0.000000,0.000000,0.0,0.00,0.0
3546.971,-1.0114,7.9503,5.5055,-0.016693,-0.000610,-0.005051,25.4181,-20.0089,-30.2048,0.000000,0.000000,0.0,0.00,0.0
3546.974,-1.0401,7.9599,5.5007,-0.018829,-0.003799,-0.003998,25.4181,-20.0089,-30.2048,0.000000,0.000000,0.0,0.00,0.0
3546.976,-0.9946,7.9623,5.5151,-0.017761,-0.008057,-0.003998,25.4181,-20.0089,-30.2048,0.000000,0.000000,0.0,0.00,0.0
3546.979,-0.9970,7.9527,5.5342,-0.019882,-0.009125,-0.005051,25.4181,-20.0089,-30.2048,0.000000,0.000000,0.0,0.00,0.0
3546.981,-1.0114,7.9599,5.4744,-0.016693,-0.011261,-0.005051,24.3393,-22.1451,-30.2551,0.000000,0.000000,0.0,0.00,0.0
3546.984,-1.0186,7.9694,5.5247,-0.016693,-0.010193,-0.009323,24.3393,-22.1451,-30.2551,0.000000,0.000000,0.0,0.00,0.0
3546.987,-1.0545,7.9766,5.5462,-0.016693,-0.011261,-0.008255,24.3393,-22.1451,-30.2551,0.000000,0.000000,0.0,0.00,0.0
3546.989,-1.0066,7.9766,5.5103,-0.014557,-0.015518,-0.008255,24.3393,-22.1451,-30.2551,0.000000,0.000000,0.0,0.00,0.0
3546.991,-1.0138,7.9551,5.5654,-0.016693,-0.015518,-0.008255,24.3393,-22.1451,-30.2551,0.000000,0.000000,0.0,0.00,0.0
3546.994,-1.0090,7.9455,5.5821,-0.016693,-0.015518,-0.007187,24.3393,-22.1451,-30.2551,0.000000,0.000000,0.0,0.00,0.0
3546.997,-0.9683,7.9431,5.5414,-0.013489,-0.014450,-0.003998,24.3393,-22.1451,-30.2551,0.000000,0.000000,0.0,0.00,0.0
3546.999,-0.9707,7.9503,5.5725,-0.015625,-0.016586,-0.002930,24.3393,-22.1451,-30.2551,0.000000,0.000000,0.0,0.00,0.0
3547.001,-0.9467,7.9311,5.6013,-0.011368,-0.016586,-0.001862,26.9394,-20.3018,-31.2775,0.000000,0.000000,0.0,0.00,0.0
3547.004,-0.9324,7.9958,5.5893,-0.008163,-0.015518,-0.005051,26.9394,-20.3018,-31.2775,0.000000,0.000000,0.0,0.00,0.0
3547.007,-0.9180,8.0078,5.5366,-0.009232,-0.012329,-0.006119,26.9394,-20.3018,-31.2775,0.000000,0.000000,0.0,0.00,0.0
3547.009,-0.9204,7.9575,5.5917,-0.008163,-0.014450,-0.003998,26.9394,-20.3018,-31.2775,0.000000,0.000000,0.0,0.00,0.0
3547.012,-0.9755,7.9647,5.5989,-0.008163,-0.010193,-0.003998,26.9394,-20.3018,-31.2775,0.000000,0.000000,0.0,0.00,0.0
3547.014,-0.9420,7.9862,5.5462,-0.006042,-0.010193,-0.007187,26.9394,-20.3018,-31.2775,0.000000,0.000000,0.0,0.00,0.0
3547.017,-0.9396,7.9718,5.5773,-0.007111,-0.011261,-0.007187,26.9394,-20.3018,-31.2775,0.000000,0.000000,0.0,0.00,0.0
3547.019,-0.9515,7.8976,5.5965,-0.008163,-0.008057,-0.006119,26.9394,-20.3018,-31.2775,0.000000,0.000000,0.0,0.00,0.0
3547.021,-0.9515,7.9647,5.5869,-0.006042,-0.008057,-0.007187,26.4771,-21.3684,-30.5405,0.000000,0.000000,0.0,0.00,0.0
3547.024,-0.9659,7.9623,5.5917,-0.007111,-0.010193,-0.008255,26.4771,-21.3684,-30.5405,0.000000,0.000000,0.0,0.00,0.0
3547.027,-0.9970,7.9575,5.6061,-0.006042,-0.013382,-0.007187,26.4771,-21.3684,-30.5405,0.000000,0.000000,0.0,0.00,0.0
3547.029,-1.0162,7.9455,5.6300,-0.003906,-0.010193,-0.006119,26.4771,-21.3684,-30.5405,0.000000,0.000000,0.0,0.00,0.0
3547.032,-1.0329,7.9838,5.6204,-0.000717,-0.008057,-0.002930,26.4771,-21.3684,-30.5405,0.000000,0.000000,0.0,0.00,0.0
3547.035,-1.0042,7.9766,5.6635,-0.003906,-0.003799,-0.003998,26.4771,-21.3684,-30.5405,0.000000,0.000000,0.0,0.00,0.0
3547.037,-1.0042,7.9742,5.7186,-0.004974,0.002594,-0.005051,26.4771,-21.3684,-30.5405,0.000000,0.000000,0.0,0.00,0.0
3547.040,-0.9994,7.9623,5.6851,-0.002838,0.007919,-0.005051,26.4771,-21.3684,-30.5405,0.000000,0.000000,0.0,0.00,0.0
3547.041,-0.9515,7.9168,5.7018,-0.001770,0.011108,-0.003998,24.9649,-19.1010,-29.8798,0.000000,0.000000,0.0,0.00,0.0
3547.045,-0.9444,7.9383,5.7258,-0.001770,0.013245,-0.002930,24.9649,-19.1010,-29.8798,0.000000,0.000000,0.0,0.00,0.0
3547.047,-0.9611,8.0006,5.6563,-0.000717,0.019638,-0.003998,24.9649,-19.1010,-29.8798,0.000000,0.000000,0.0,0.00,0.0
3547.049,-0.9491,7.9718,5.6372,0.002487,0.022827,-0.002930,24.9649,-19.1010,-29.8798,0.000000,0.000000,0.0,0.00,0.0
3547.052,-0.9827,7.9383,5.5869,-0.000717,0.027100,-0.003998,24.9649,-19.1010,-29.8798,0.000000,0.000000,0.0,0.00,0.0
3547.055,-1.0066,7.9383,5.5989,-0.000717,0.031357,-0.003998,24.9649,-19.1010,-29.8798,0.000000,0.000000,0.0,0.00,0.0
3547.057,-1.0353,7.9527,5.5893,-0.000717,0.032425,-0.003998,24.9649,-19.1010,-29.8798,0.000000,0.000000,0.0,0.00,0.0
3547.060,-1.0186,7.9192,5.5630,-0.001770,0.036682,-0.002930,24.9649,-19.1010,-29.8798,0.000000,0.000000,0.0,0.00,0.0
3547.062,-1.0497,7.9599,5.5630,-0.002838,0.029221,-0.001862,26.3245,-21.2189,-30.9937,0.000000,0.000000,0.0,0.00,0.0
3547.065,-1.0401,7.9527,5.5654,-0.000717,0.024963,-0.000793,26.3245,-21.2189,-30.9937,0.000000,0.000000,0.0,0.00,0.0
3547.067,-1.0641,7.9216,5.4983,-0.006042,0.023895,-0.002930,26.3245,-21.2189,-30.9937,0.000000,0.000000,0.0,0.00,0.0
3547.069,-1.0832,7.9168,5.5127,-0.009232,0.021759,-0.000793,26.3245,-21.2189,-30.9937,0.000000,0.000000,0.0,0.00,0.0
3547.073,-1.1191,7.8880,5.5510,-0.008163,0.015381,0.000275,26.3245,-21.2189,-30.9937,0.000000,0.000000,0.0,0.00,0.0
3547.076,-1.1215,7.9048,5.5654,-0.009232,0.010056,-0.000793,26.3245,-21.2189,-30.9937,0.000000,0.000000,0.0,0.00,0.0
3547.077,-1.0832,7.9551,5.5989,-0.010300,0.005783,-0.001862,26.3245,-21.2189,-30.9937,0.000000,0.000000,0.0,0.00,0.0
3547.080,-1.0856,7.9359,5.5677,-0.011368,0.001526,0.001343,26.3245,-21.2189,-30.9937,0.000000,0.000000,0.0,0.00,0.0
3547.082,-1.0497,7.9455,5.5917,-0.012436,0.001526,0.000275,25.5676,-20.4636,-30.3680,0.000000,0.000000,0.0,0.00,0.0
3547.085,-1.1024,7.9407,5.5749,-0.013489,0.001526,-0.002930,25.5676,-20.4636,-30.3680,0.000000,0.000000,0.0,0.00,0.0
3547.087,-1.1000,7.9599,5.5534,-0.013489,-0.002731,-0.000793,25.5676,-20.4636,-30.3680,0.000000,0.000000,0.0,0.00,0.0
3547.090,-1.0928,7.9551,5.5318,-0.014557,-0.002731,-0.002930,25.5676,-20.4636,-30.3680,0.000000,0.000000,0.0,0.00,0.0
3547.093,-1.0784,7.9742,5.5223,-0.013489,0.000458,-0.001862,25.5676,-20.4636,-30.3680,0.000000,0.000000,0.0,0.00,0.0
3547.095,-1.0617,7.9263,5.5534,-0.015625,0.001526,0.001343,25.5676,-20.4636,-30.3680,0.000000,0.000000,0.0,0.00,0.0
3547.098,-1.0353,7.9192,5.5294,-0.015625,0.000458,0.001343,25.5676,-20.4636,-30.3680,0.000000,0.000000,0.0,0.00,0.0
3547.100,-0.9731,7.9479,5.4648,-0.013489,-0.001663,0.001343,25.5676,-20.4636,-30.3680,0.000000,0.000000,0.0,0.00,0.0
3547.102,-0.9348,7.9814,5.4361,-0.015625,0.000458,-0.000793,25.4150,-20.6161,-29.7607,0.000000,0.000000,0.0,0.00,0.0
3547.105,-0.9324,8.0293,5.4456,-0.016693,-0.000610,-0.001862,25.4150,-20.6161,-29.7607,0.000000,0.000000,0.0,0.00,0.0
3547.107,-0.8941,7.9982,5.3595,-0.016693,-0.004868,-0.006119,25.4150,-20.6161,-29.7607,0.000000,0.000000,0.0,0.00,0.0
3547.110,-0.8773,8.0030,5.3810,-0.018829,-0.005936,-0.008255,25.4150,-20.6161,-29.7607,0.000000,0.000000,0.0,0.00,0.0
3547.112,-0.8653,8.0030,5.3978,-0.023087,-0.008057,-0.012512,25.4150,-20.6161,-29.7607,0.000000,0.000000,0.0,0.00,0.0
3547.115,-0.8677,7.9886,5.3690,-0.024155,-0.005936,-0.017838,25.4150,-20.6161,-29.7607,0.000000,0.000000,0.0,0.00,0.0
3547.117,-0.9084,8.0221,5.3547,-0.025208,-0.008057,-0.018906,25.4150,-20.6161,-29.7607,0.000000,0.000000,0.0,0.00,0.0
3547.120,-0.8725,7.9383,5.3547,-0.034805,-0.011261,-0.024231,25.4150,-20.6161,-29.7607,0.000000,0.000000,0.0,0.00,0.0
3547.122,-0.8701,7.9647,5.4169,-0.037994,-0.011261,-0.028488,25.2609,-20.9213,-29.6158,0.000000,0.000000,0.0,0.00,0.0
3547.125,-0.9132,7.9240,5.4193,-0.040131,-0.013382,-0.028488,25.2609,-20.9213,-29.6158,0.000000,0.000000,0.0,0.00,0.0
3547.128,-0.9084,7.9575,5.4289,-0.043320,-0.013382,-0.032761,25.2609,-20.9213,-29.6158,0.000000,0.000000,0.0,0.00,0.0
3547.130,-0.8989,7.9599,5.4624,-0.046524,-0.012329,-0.037018,25.2609,-20.9213,-29.6158,0.000000,0.000000,0.0,0.00,0.0
3547.133,-0.9084,7.9718,5.5271,-0.050781,-0.012329,-0.037018,25.2609,-20.9213,-29.6158,0.000000,0.000000,0.0,0.00,0.0
3547.136,-0.9252,7.9575,5.5725,-0.052917,-0.014450,-0.042343,25.2609,-20.9213,-29.6158,0.000000,0.000000,0.0,0.00,0.0
3547.137,-0.9061,7.9551,5.5773,-0.052917,-0.014450,-0.042343,25.2609,-20.9213,-29.6158,0.000000,0.000000,0.0,0.00,0.0
3547.140,-0.9587,7.9431,5.5654,-0.055038,-0.011261,-0.041275,25.2609,-20.9213,-29.6158,0.000000,0.000000,0.0,0.00,0.0
3547.143,-0.8845,7.9072,5.6348,-0.057175,-0.008057,-0.044464,25.2594,-21.2265,-30.3848,0.000000,0.000000,0.0,0.00,0.0
3547.145,-0.9324,7.9144,5.6228,-0.057175,-0.008057,-0.043411,25.2594,-21.2265,-30.3848,0.000000,0.000000,0.0,0.00,0.0
3547.147,-0.9539,7.9072,5.6396,-0.058243,0.003662,-0.041275,25.2594,-21.2265,-30.3848,0.000000,0.000000,0.0,0.00,0.0
3547.150,-0.8845,7.9455,5.6923,-0.056107,0.008987,-0.042343,25.2594,-21.2265,-30.3848,0.000000,0.000000,0.0,0.00,0.0
3547.153,-0.9396,7.8976,5.7162,-0.052917,0.014313,-0.043411,25.2594,-21.2265,-30.3848,0.000000,0.000000,0.0,0.00,0.0
3547.155,-0.9659,7.9263,5.7760,-0.048645,0.021759,-0.041275,25.2594,-21.2265,-30.3848,0.000000,0.000000,0.0,0.00,0.0
3547.158,-0.9755,7.8857,5.7210,-0.045456,0.028152,-0.040207,25.2594,-21.2265,-30.3848,0.000000,0.000000,0.0,0.00,0.0
3547.160,-0.9946,7.8641,5.7617,-0.045456,0.035614,-0.037018,25.2594,-21.2265,-30.3848,0.000000,0.000000,0.0,0.00,0.0
3547.163,-0.9946,7.8689,5.7354,-0.044388,0.043076,-0.037018,24.9634,-19.4061,-30.6488,0.000000,0.000000,0.0,0.00,0.0
3547.165,-0.9779,7.8857,5.6803,-0.042252,0.050522,-0.034882,24.9634,-19.4061,-30.6488,0.000000,0.000000,0.0,0.00,0.0
3547.167,-1.0258,7.9096,5.6707,-0.036926,0.055847,-0.032761,24.9634,-19.4061,-30.6488,0.000000,0.000000,0.0,0.00,0.0
3547.170,-1.0449,7.8976,5.7162,-0.034805,0.056915,-0.030624,24.9634,-19.4061,-30.6488,0.000000,0.000000,0.0,0.00,0.0
3547.173,-1.0497,7.8401,5.6444,-0.030533,0.056915,-0.028488,24.9634,-19.4061,-30.6488,0.000000,0.000000,0.0,0.00,0.0
3547.176,-1.0329,7.8641,5.6875,-0.031601,0.060120,-0.027420,24.9634,-19.4061,-30.6488,0.000000,0.000000,0.0,0.00,0.0
3547.178,-1.0665,7.9096,5.6180,-0.029480,0.059052,-0.024231,24.9634,-19.4061,-30.6488,0.000000,0.000000,0.0,0.00,0.0
3547.182,-1.1191,7.8833,5.5941,-0.026276,0.064377,-0.024231,24.9634,-19.4061,-30.6488,0.000000,0.000000,0.0,0.00,0.0
3547.183,-1.1503,7.8473,5.7090,-0.028412,0.060120,-0.021042,25.5692,-20.1584,-29.9026,0.000000,0.000000,0.0,0.00,0.0
3547.186,-1.1431,7.8833,5.6444,-0.029480,0.060120,-0.018906,25.5692,-20.1584,-29.9026,0.000000,0.000000,0.0,0.00,0.0
3547.188,-1.1694,7.8689,5.5821,-0.027344,0.061188,-0.014648,25.5692,-20.1584,-29.9026,0.000000,0.000000,0.0,0.00,0.0
3547.190,-1.1981,7.8665,5.6180,-0.026276,0.059052,-0.012512,25.5692,-20.1584,-29.9026,0.000000,0.000000,0.0,0.00,0.0
3547.194,-1.2365,7.8857,5.5797,-0.026276,0.057983,-0.009323,25.5692,-20.1584,-29.9026,0.000000,0.000000,0.0,0.00,0.0
3547.195,-1.2053,7.8665,5.4983,-0.026276,0.056915,-0.010376,25.5692,-20.1584,-29.9026,0.000000,0.000000,0.0,0.00,0.0
3547.198,-1.2029,7.8018,5.5534,-0.026276,0.049469,-0.010376,25.5692,-20.1584,-29.9026,0.000000,0.000000,0.0,0.00,0.0
3547.201,-1.2388,7.8545,5.4840,-0.029480,0.043076,-0.006119,25.5692,-20.1584,-29.9026,0.000000,0.000000,0.0,0.00,0.0
3547.203,-1.2484,7.8282,5.4864,-0.029480,0.039871,-0.002930,26.7929,-19.3878,-29.2755,0.000000,0.000000,0.0,0.00,0.0
3547.206,-1.2149,7.8354,5.4840,-0.028412,0.038803,0.003464,26.7929,-19.3878,-29.2755,0.000000,0.000000,0.0,0.00,0.0
3547.208,-1.1790,7.8641,5.5294,-0.027344,0.034546,0.005600,26.7929,-19.3878,-29.2755,0.000000,0.000000,0.0,0.00,0.0
3547.211,-1.1574,7.8378,5.5749,-0.024155,0.029221,0.003464,26.7929,-19.3878,-29.2755,0.000000,0.000000,0.0,0.00,0.0
3547.213,-1.1191,7.9000,5.5701,-0.025208,0.024963,0.006668,26.7929,-19.3878,-29.2755,0.000000,0.000000,0.0,0.00,0.0
3547.216,-1.0736,7.8880,5.5606,-0.022018,0.019638,0.011993,26.7929,-19.3878,-29.2755,0.000000,0.000000,0.0,0.00,0.0
3547.218,-1.0880,7.9479,5.6037,-0.022018,0.017502,0.007721,26.7929,-19.3878,-29.2755,0.000000,0.000000,0.0,0.00,0.0
3547.221,-1.0904,7.9455,5.6013,-0.017761,0.015381,0.003464,26.7929,-19.3878,-29.2755,0.000000,0.000000,0.0,0.00,0.0
3547.223,-1.0665,7.9431,5.5749,-0.013489,0.013245,0.003464,26.3336,-19.3954,-30.9525,0.000000,0.000000,0.0,0.00,0.0
3547.226,-1.0688,7.9192,5.5558,-0.007111,0.010056,0.004532,26.3336,-19.3954,-30.9525,0.000000,0.000000,0.0,0.00,0.0
3547.228,-1.0641,7.9814,5.5151,-0.010300,0.011108,0.003464,26.3336,-19.3954,-30.9525,0.000000,0.000000,0.0,0.00,0.0
3547.231,-1.0665,7.9287,5.5582,-0.010300,0.010056,0.002396,26.3336,-19.3954,-30.9525,0.000000,0.000000,0.0,0.00,0.0
3547.233,-1.0305,7.9407,5.4959,-0.011368,0.008987,0.003464,26.3336,-19.3954,-30.9525,0.000000,0.000000,0.0,0.00,0.0
3547.236,-1.0090,7.9335,5.5223,-0.014557,0.007919,-0.000793,26.3336,-19.3954,-30.9525,0.000000,0.000000,0.0,0.00,0.0
3547.239,-0.9827,7.9311,5.4959,-0.014557,0.005783,-0.001862,26.3336,-19.3954,-30.9525,0.000000,0.000000,0.0,0.00,0.0
3547.241,-0.9827,8.0006,5.4792,-0.016693,0.002594,-0.000793,26.0284,-19.6991,-29.8920,0.000000,0.000000,0.0,0.00,0.0
3547.243,-0.9755,7.9886,5.5151,-0.018829,0.003662,-0.000793,26.0284,-19.6991,-29.8920,0.000000,0.000000,0.0,0.00,0.0
3547.245,-0.9348,7.9575,5.5414,-0.020950,-0.004868,-0.006119,26.0284,-19.6991,-29.8920,0.000000,0.000000,0.0,0.00,0.0
3547.249,-0.9228,7.9120,5.5199,-0.020950,-0.004868,-0.006119,26.0284,-19.6991,-29.8920,0.000000,0.000000,0.0,0.00,0.0
3547.251,-0.9348,7.9479,5.5797,-0.026276,-0.005936,-0.005051,26.0284,-19.6991,-29.8920,0.000000,0.000000,0.0,0.00,0.0
3547.253,-1.0042,7.9072,5.6037,-0.027344,-0.010193,-0.009323,26.0284,-19.6991,-29.8920,0.000000,0.000000,0.0,0.00,0.0
3547.256,-0.9875,7.9359,5.6348,-0.024155,-0.004868,-0.011444,26.0284,-19.6991,-29.8920,0.000000,0.000000,0.0,0.00,0.0
3547.258,-0.9851,7.9048,5.6827,-0.030533,-0.004868,-0.013580,26.0284,-19.6991,-29.8920,0.000000,0.000000,0.0,0.00,0.0
3547.261,-0.9851,7.9479,5.7162,-0.031601,-0.007004,-0.015717,25.5661,-20.9183,-29.6158,0.000000,0.000000,0.0,0.00,0.0
3547.263,-0.9994,7.9599,5.6851,-0.029480,-0.004868,-0.014648,25.5661,-20.9183,-29.6158,0.000000,0.000000,0.0,0.00,0.0
3547.266,-0.9731,7.9096,5.6563,-0.032669,-0.000610,-0.015717,25.5661,-20.9183,-29.6158,0.000000,0.000000,0.0,0.00,0.0
3547.269,-0.9946,7.9192,5.6372,-0.031601,0.004715,-0.012512,25.5661,-20.9183,-29.6158,0.000000,0.000000,0.0,0.00,0.0
3547.271,-1.0162,7.9551,5.6875,-0.031601,0.004715,-0.014648,25.5661,-20.9183,-29.6158,0.000000,0.000000,0.0,0.00,0.0
3547.274,-1.0210,7.9192,5.6899,-0.033737,0.011108,-0.015717,25.5661,-20.9183,-29.6158,0.000000,0.000000,0.0,0.00,0.0
3547.278,-0.9420,7.9216,5.7186,-0.030533,0.016434,-0.013580,25.5661,-20.9183,-29.6158,0.000000,0.000000,0.0,0.00,0.0
3547.279,-1.0042,7.9048,5.7210,-0.030533,0.017502,-0.013580,25.5661,-20.9183,-29.6158,0.000000,0.000000,0.0,0.00,0.0
3547.281,-1.0090,7.9168,5.7138,-0.028412,0.026031,-0.012512,25.5692,-20.4620,-29.2999,0.000000,0.000000,0.0,0.00,0.0
3547.285,-1.0066,7.8952,5.7066,-0.028412,0.032425,-0.012512,25.5692,-20.4620,-29.2999,0.000000,0.000000,0.0,0.00,0.0
3547.286,-1.0258,7.8785,5.7330,-0.022018,0.033478,-0.012512,25.5692,-20.4620,-29.2999,0.000000,0.000000,0.0,0.00,0.0
3547.288,-1.0832,7.9168,5.7641,-0.018829,0.036682,-0.010376,25.5692,-20.4620,-29.2999,0.000000,0.000000,0.0,0.00,0.0
3547.291,-1.0832,7.9503,5.7760,-0.017761,0.037750,-0.010376,25.5692,-20.4620,-29.2999,0.000000,0.000000,0.0,0.00,0.0
3547.293,-1.1048,7.9335,5.7282,-0.015625,0.039871,-0.009323,25.5692,-20.4620,-29.2999,0.000000,0.000000,0.0,0.00,0.0
3547.296,-1.1383,7.8833,5.7832,-0.012436,0.040939,-0.007187,25.5692,-20.4620,-29.2999,0.000000,0.000000,0.0,0.00,0.0
3547.298,-1.1311,7.9072,5.7569,-0.007111,0.043076,-0.005051,25.5692,-20.4620,-29.2999,0.000000,0.000000,0.0,0.00,0.0
3547.301,-1.1622,7.9168,5.7425,-0.009232,0.044144,-0.002930,26.7914,-19.6930,-29.8920,0.000000,0.000000,0.0,0.00,0.0
3547.304,-1.1838,7.8928,5.7186,-0.009232,0.046265,0.000275,26.7914,-19.6930,-29.8920,0.000000,0.000000,0.0,0.00,0.0
3547.306,-1.2101,7.9000,5.7713,-0.009232,0.046265,0.003464,26.7914,-19.6930,-29.8920,0.000000,0.000000,0.0,0.00,0.0
3547.309,-1.2077,7.8569,5.7904,-0.008163,0.045197,0.007721,26.7914,-19.6930,-29.8920,0.000000,0.000000,0.0,0.00,0.0
3547.312,-1.1957,7.8833,5.7210,-0.006042,0.037750,0.011993,26.7914,-19.6930,-29.8920,0.000000,0.000000,0.0,0.00,0.0
3547.315,-1.2388,7.8330,5.7090,-0.003906,0.037750,0.009857,26.7914,-19.6930,-29.8920,0.000000,0.000000,0.0,0.00,0.0
3547.316,-1.2149,7.8880,5.7162,-0.001770,0.031357,0.009857,26.7914,-19.6930,-29.8920,0.000000,0.000000,0.0,0.00,0.0
3547.319,-1.1766,7.8904,5.6539,0.001419,0.027100,0.013046,26.7914,-19.6930,-29.8920,0.000000,0.000000,0.0,0.00,0.0
3547.322,-1.1862,7.8880,5.6659,0.004608,0.026031,0.016251,26.4786,-21.3654,-28.7094,0.000000,0.000000,0.0,0.00,0.0
3547.325,-1.1886,7.9096,5.7066,0.005676,0.021759,0.020508,26.4786,-21.3654,-28.7094,0.000000,0.000000,0.0,0.00,0.0
3547.326,-1.1670,7.8928,5.6994,0.005676,0.015381,0.020508,26.4786,-21.3654,-28.7094,0.000000,0.000000,0.0,0.00,0.0
3547.330,-1.1646,7.8928,5.7425,0.006744,0.014313,0.019440,26.4786,-21.3654,-28.7094,0.000000,0.000000,0.0,0.00,0.0
3547.331,-1.1766,7.9048,5.7449,0.014206,0.011108,0.021576,26.4786,-21.3654,-28.7094,0.000000,0.000000,0.0,0.00,0.0
3547.335,-1.1072,7.9335,5.7377,0.013138,0.008987,0.022644,26.4786,-21.3654,-28.7094,0.000000,0.000000,0.0,0.00,0.0
3547.337,-1.1120,7.9168,5.7090,0.014206,0.003662,0.021576,26.4786,-21.3654,-28.7094,0.000000,0.000000,0.0,0.00,0.0
3547.339,-1.0688,7.9407,5.7090,0.019531,-0.000610,0.025833,26.4786,-21.3654,-28.7094,0.000000,0.000000,0.0,0.00,0.0
3547.341,-0.9946,7.9287,5.7354,0.024857,-0.003799,0.025833,24.9619,-20.1614,-28.5309,0.000000,0.000000,0.0,0.00,0.0
3547.344,-1.0425,7.9168,5.6899,0.026978,-0.002731,0.022644,24.9619,-20.1614,-28.5309,0.000000,0.000000,0.0,0.00,0.0
3547.347,-1.1024,7.9240,5.6252,0.028046,-0.008057,0.021576,24.9619,-20.1614,-28.5309,0.000000,0.000000,0.0,0.00,0.0
3547.350,-1.1503,7.8976,5.5845,0.028046,-0.005936,0.021576,24.9619,-20.1614,-28.5309,0.000000,0.000000,0.0,0.00,0.0
3547.352,-1.1455,7.8880,5.5821,0.029114,-0.003799,0.021576,24.9619,-20.1614,-28.5309,0.000000,0.000000,0.0,0.00,0.0
3547.355,-1.1718,7.8904,5.5749,0.030182,-0.005936,0.022644,24.9619,-20.1614,-28.5309,0.000000,0.000000,0.0,0.00,0.0
3547.357,-1.1718,7.8785,5.5917,0.029114,-0.011261,0.023712,24.9619,-20.1614,-28.5309,0.000000,0.000000,0.0,0.00,0.0
3547.359,-1.0952,7.9240,5.5797,0.029114,-0.009125,0.023712,24.9619,-20.1614,-28.5309,0.000000,0.000000,0.0,0.00,0.0
3547.362,-1.1048,7.9383,5.6563,0.031250,-0.014450,0.024765,25.1068,-21.3791,-29.7791,0.000000,0.000000,0.0,0.00,0.0
3547.364,-1.0712,7.9718,5.6444,0.031250,-0.020844,0.024765,25.1068,-21.3791,-29.7791,0.000000,0.000000,0.0,0.00,0.0
3547.367,-1.0641,7.9072,5.6731,0.032318,-0.020844,0.024765,25.1068,-21.3791,-29.7791,0.000000,0.000000,0.0,0.00,0.0
3547.369,-1.0688,7.9886,5.7186,0.034439,-0.022980,0.025833,25.1068,-21.3791,-29.7791,0.000000,0.000000,0.0,0.00,0.0
3547.372,-1.0521,7.9838,5.7545,0.033371,-0.022980,0.021576,25.1068,-21.3791,-29.7791,0.000000,0.000000,0.0,0.00,0.0
3547.374,-1.0688,7.9551,5.6875,0.031250,-0.016586,0.022644,25.1068,-21.3791,-29.7791,0.000000,0.000000,0.0,0.00,0.0
3547.377,-1.0617,7.9575,5.7018,0.034439,-0.019775,0.024765,25.1068,-21.3791,-29.7791,0.000000,0.000000,0.0,0.00,0.0
3547.379,-1.0545,7.9431,5.6635,0.039764,-0.016586,0.023712,25.1068,-21.3791,-29.7791,0.000000,0.000000,0.0,0.00,0.0
3547.381,-1.0401,7.9623,5.6851,0.038696,-0.013382,0.021576,25.8743,-20.6085,-27.9312,0.000000,0.000000,0.0,0.00,0.0
3547.385,-1.0114,7.9647,5.7114,0.036575,-0.010193,0.022644,25.8743,-20.6085,-27.9312,0.000000,0.000000,0.0,0.00,0.0
3547.387,-0.9827,7.9287,5.6444,0.037643,-0.005936,0.023712,25.8743,-20.6085,-27.9312,0.000000,0.000000,0.0,0.00,0.0
3547.389,-1.0090,7.9838,5.6587,0.034439,-0.004868,0.022644,25.8743,-20.6085,-27.9312,0.000000,0.000000,0.0,0.00,0.0
3547.391,-0.9827,8.0006,5.6492,0.032318,-0.004868,0.022644,25.8743,-20.6085,-27.9312,0.000000,0.000000,0.0,0.00,0.0
3547.394,-0.9276,7.9790,5.6276,0.031250,-0.002731,0.021576,25.8743,-20.6085,-27.9312,0.000000,0.000000,0.0,0.00,0.0
3547.397,-0.9372,7.9886,5.5821,0.030182,0.000458,0.019440,25.8743,-20.6085,-27.9312,0.000000,0.000000,0.0,0.00,0.0
3547.400,-0.9324,7.9623,5.5941,0.028046,0.000458,0.019440,25.8743,-20.6085,-27.9312,0.000000,0.000000,0.0,0.00,0.0
3547.402,-0.9228,7.9886,5.5294,0.028046,0.003662,0.018387,26.3275,-20.9122,-29.6143,0.000000,0.000000,0.0,0.00,0.0
3547.404,-0.9467,7.9694,5.5318,0.026978,0.003662,0.013046,26.3275,-20.9122,-29.6143,0.000000,0.000000,0.0,0.00,0.0
3547.407,-0.9348,7.9551,5.5318,0.023788,0.006851,0.010925,26.3275,-20.9122,-29.6143,0.000000,0.000000,0.0,0.00,0.0
3547.410,-0.9515,7.9575,5.5462,0.020599,0.007919,0.007721,26.3275,-20.9122,-29.6143,0.000000,0.000000,0.0,0.00,0.0
3547.412,-1.0162,7.9287,5.6156,0.017395,0.010056,0.005600,26.3275,-20.9122,-29.6143,0.000000,0.000000,0.0,0.00,0.0
3547.414,-0.9922,7.8904,5.5965,0.019531,0.013245,0.006668,26.3275,-20.9122,-29.6143,0.000000,0.000000,0.0,0.00,0.0
3547.417,-1.0066,7.8952,5.5199,0.021652,0.012177,0.005600,26.3275,-20.9122,-29.6143,0.000000,0.000000,0.0,0.00,0.0
3547.419,-0.9779,7.8976,5.5342,0.021652,0.018570,0.008789,26.3275,-20.9122,-29.6143,0.000000,0.000000,0.0,0.00,0.0
3547.422,-0.9755,7.9359,5.5725,0.020599,0.022827,0.007721,26.7883,-20.1492,-29.9026,0.000000,0.000000,0.0,0.00,0.0
3547.425,-0.9515,7.9359,5.5534,0.017395,0.030289,0.005600,26.7883,-20.1492,-29.9026,0.000000,0.000000,0.0,0.00,0.0
3547.427,-0.9683,7.8976,5.4624,0.015274,0.034546,0.006668,26.7883,-20.1492,-29.9026,0.000000,0.000000,0.0,0.00,0.0
3547.430,-0.9252,7.9192,5.4672,0.015274,0.036682,0.008789,26.7883,-20.1492,-29.9026,0.000000,0.000000,0.0,0.00,0.0
3547.432,-0.9563,7.9144,5.4959,0.013138,0.044144,0.007721,26.7883,-20.1492,-29.9026,0.000000,0.000000,0.0,0.00,0.0
3547.435,-0.9204,7.8473,5.4528,0.012070,0.051590,0.005600,26.7883,-20.1492,-29.9026,0.000000,0.000000,0.0,0.00,0.0
3547.438,-0.9515,7.8665,5.4289,0.009933,0.052658,0.005600,26.7883,-20.1492,-29.9026,0.000000,0.000000,0.0,0.00,0.0
3547.440,-0.9659,7.8521,5.3499,0.008881,0.048401,0.003464,26.7883,-20.1492,-29.9026,0.000000,0.000000,0.0,0.00,0.0
3547.442,-0.9444,7.8497,5.3618,0.003555,0.048401,0.002396,25.8804,-19.2413,-28.6621,0.000000,0.000000,0.0,0.00,0.0
3547.446,-0.9396,7.8521,5.3738,0.001419,0.042007,0.000275,25.8804,-19.2413,-28.6621,0.000000,0.000000,0.0,0.00,0.0
3547.448,-0.9827,7.8904,5.3475,0.000351,0.042007,-0.002930,25.8804,-19.2413,-28.6621,0.000000,0.000000,0.0,0.00,0.0
3547.450,-0.9587,7.8569,5.3523,-0.002838,0.037750,-0.001862,25.8804,-19.2413,-28.6621,0.000000,0.000000,0.0,0.00,0.0
3547.453,-0.9683,7.8641,5.4265,-0.001770,0.040939,-0.003998,25.8804,-19.2413,-28.6621,0.000000,0.000000,0.0,0.00,0.0
3547.455,-1.0066,7.8761,5.4193,-0.008163,0.036682,-0.003998,25.8804,-19.2413,-28.6621,0.000000,0.000000,0.0,0.00,0.0
3547.458,-1.1072,7.8306,5.4313,-0.010300,0.030289,-0.007187,25.8804,-19.2413,-28.6621,0.000000,0.000000,0.0,0.00,0.0
3547.460,-1.1503,7.7827,5.4648,-0.014557,0.030289,-0.003998,25.8804,-19.2413,-28.6621,0.000000,0.000000,0.0,0.00,0.0
3547.462,-1.1694,7.7899,5.4816,-0.012436,0.031357,-0.000793,25.4242,-18.7927,-29.7195,0.000000,0.000000,0.0,0.00,0.0
3547.464,-1.1646,7.8018,5.4768,-0.014557,0.030289,-0.001862,25.4242,-18.7927,-29.7195,0.000000,0.000000,0.0,0.00,0.0
3547.467,-1.1431,7.7635,5.5199,-0.015625,0.026031,0.000275,25.4242,-18.7927,-29.7195,0.000000,0.000000,0.0,0.00,0.0
3547.470,-1.1383,7.8354,5.5797,-0.012436,0.023895,0.002396,25.4242,-18.7927,-29.7195,0.000000,0.000000,0.0,0.00,0.0
3547.473,-1.1215,7.8593,5.6156,-0.014557,0.018570,0.002396,25.4242,-18.7927,-29.7195,0.000000,0.000000,0.0,0.00,0.0
3547.476,-1.0976,7.8593,5.6061,-0.013489,0.015381,0.005600,25.4242,-18.7927,-29.7195,0.000000,0.000000,0.0,0.00,0.0
3547.477,-1.0401,7.8689,5.6539,-0.008163,0.008987,0.006668,25.4242,-18.7927,-29.7195,0.000000,0.000000,0.0,0.00,0.0
3547.481,-1.0305,7.9240,5.6587,-0.003906,0.003662,0.011993,25.4242,-18.7927,-29.7195,0.000000,0.000000,0.0,0.00,0.0
3547.482,-1.0569,7.8785,5.6635,-0.000717,0.001526,0.011993,24.6536,-20.3201,-30.8228,0.000000,0.000000,0.0,0.00,0.0
3547.485,-1.1000,7.9168,5.6372,0.001419,-0.002731,0.008789,24.6536,-20.3201,-30.8228,0.000000,0.000000,0.0,0.00,0.0
3547.489,-1.1287,7.9431,5.6635,0.005676,-0.003799,0.013046,24.6536,-20.3201,-30.8228,0.000000,0.000000,0.0,0.00,0.0
3547.490,-1.1694,7.8952,5.6204,0.005676,-0.003799,0.014114,24.6536,-20.3201,-30.8228,0.000000,0.000000,0.0,0.00,0.0
3547.492,-1.1838,7.8737,5.5749,0.004608,-0.003799,0.014114,24.6536,-20.3201,-30.8228,0.000000,0.000000,0.0,0.00,0.0
3547.497,-1.1479,7.9120,5.5414,0.004608,-0.000610,0.017319,24.6536,-20.3201,-30.8228,0.000000,0.000000,0.0,0.00,0.0
3547.498,-1.1311,7.9551,5.5869,0.003555,-0.005936,0.021576,24.6536,-20.3201,-30.8228,0.000000,0.000000,0.0,0.00,0.0
3547.500,-1.0808,7.8809,5.6444,0.002487,-0.008057,0.021576,24.6536,-20.3201,-30.8228,0.000000,0.000000,0.0,0.00,0.0
3547.502,-1.0569,7.9120,5.6827,0.002487,-0.008057,0.022644,24.5010,-20.9244,-28.5492,0.000000,0.000000,0.0,0.00,0.0
3547.505,-1.0617,7.9024,5.6707,0.004608,-0.011261,0.023712,24.5010,-20.9244,-28.5492,0.000000,0.000000,0.0,0.00,0.0
3547.508,-1.0066,7.9096,5.7377,0.004608,-0.010193,0.020508,24.5010,-20.9244,-28.5492,0.000000,0.000000,0.0,0.00,0.0
3547.510,-1.0473,7.9479,5.6899,0.003555,-0.007004,0.019440,24.5010,-20.9244,-28.5492,0.000000,0.000000,0.0,0.00,0.0
3547.513,-1.0401,7.9503,5.7330,0.003555,-0.007004,0.016251,24.5010,-20.9244,-28.5492,0.000000,0.000000,0.0,0.00,0.0
3547.516,-0.9683,7.9862,5.7282,0.004608,-0.003799,0.015182,24.5010,-20.9244,-28.5492,0.000000,0.000000,0.0,0.00,0.0
3547.518,-0.9755,8.0006,5.7042,0.003555,-0.002731,0.021576,24.5010,-20.9244,-28.5492,0.000000,0.000000,0.0,0.00,0.0
3547.520,-0.9396,7.9766,5.7210,0.003555,0.002594,0.015182,24.5010,-20.9244,-28.5492,0.000000,0.000000,0.0,0.00,0.0
