timestamp,ax,ay,az,gx,gy,gz,lat,lng,alt,speed,bearing
24598.416,-2.7833,7.6025,5.0539,0.0000,0.0000,0.0000,0.000000,0.000000,0.0,0.00,0.0
24598.421,-2.4148,7.5762,5.2310,0.0000,0.0000,0.0000,0.000000,0.000000,0.0,0.00,0.0
24598.430,-2.1611,7.5618,5.4248,0.0000,0.0000,0.0000,0.000000,0.000000,0.0,0.00,0.0
24598.443,-2.3047,7.5115,5.5923,0.0000,0.0000,0.0000,0.000000,0.000000,0.0,0.00,0.0
24598.449,-2.5129,7.3536,5.8077,0.0000,0.0000,0.0000,0.000000,0.000000,0.0,0.00,0.0
24598.460,-2.6517,7.2148,5.9178,0.0000,0.0000,0.0000,0.000000,0.000000,0.0,0.00,0.0
24598.468,-2.5727,7.4254,5.8029,0.0000,0.0000,0.0000,0.000000,0.000000,0.0,0.00,0.0
24598.479,-2.4818,7.6862,5.3817,0.0000,0.0000,0.0000,0.000000,0.000000,0.0,0.00,0.0
24598.489,-2.3932,7.9590,5.0946,0.0000,0.0000,0.0000,0.000000,0.000000,0.0,0.00,0.0
24598.498,-2.2353,7.9543,5.1089,0.0000,0.0000,0.0000,0.000000,0.000000,0.0,0.00,0.0
24598.509,-2.2138,7.7987,5.1448,0.0000,0.0000,0.0000,0.000000,0.000000,0.0,0.00,0.0
24598.518,-2.1252,7.7293,5.3770,0.0000,0.0000,0.0000,0.000000,0.000000,0.0,0.00,0.0
24598.528,-2.0367,7.6647,5.7215,0.0000,0.0000,0.0000,0.000000,0.000000,0.0,0.00,0.0
24598.539,-1.8668,7.5714,6.0183,0.0000,0.0000,0.0000,0.000000,0.000000,0.0,0.00,0.0
24598.548,-1.6610,7.5785,6.2313,0.0000,0.0000,0.0000,0.000000,0.000000,0.0,0.00,0.0
24598.559,-1.6849,7.5738,6.3868,0.0000,0.0000,0.0000,0.000000,0.000000,0.0,0.00,0.0
24598.569,-1.9194,7.5498,6.5017,0.0000,0.0000,0.0000,0.000000,0.000000,0.0,0.00,0.0
24598.578,-2.0678,7.5857,6.3629,0.0000,0.0000,0.0000,0.000000,0.000000,0.0,0.00,0.0
24598.589,-2.1539,7.5977,6.1882,0.0000,0.0000,0.0000,0.000000,0.000000,0.0,0.00,0.0
24598.598,-2.1444,7.5474,6.1188,0.0000,0.0000,0.0000,0.000000,0.000000,0.0,0.00,0.0
24598.609,-2.0510,7.5642,5.9058,0.0000,0.0000,0.0000,0.000000,0.000000,0.0,0.00,0.0
24598.622,-2.0032,7.5594,5.9537,0.0000,0.0000,0.0000,0.000000,0.000000,0.0,0.00,0.0
24598.629,-2.1276,7.5618,6.0829,0.0000,0.0000,0.0000,0.000000,0.000000,0.0,0.00,0.0
24598.640,-2.0726,7.5738,6.1666,0.0000,0.0000,0.0000,0.000000,0.000000,0.0,0.00,0.0
24598.650,-1.9362,7.5474,6.1930,0.0000,0.0000,0.0000,0.000000,0.000000,0.0,0.00,0.0
24598.660,-1.7591,7.5618,6.1403,0.0000,0.0000,0.0000,0.000000,0.000000,0.0,0.00,0.0
24598.670,-1.7088,7.5690,6.0398,0.0000,0.0000,0.0000,0.000000,0.000000,0.0,0.00,0.0
24598.680,-1.7543,7.6097,5.9920,0.0000,0.0000,0.0000,0.000000,0.000000,0.0,0.00,0.0
24598.690,-1.8165,7.6192,5.8101,0.0000,0.0000,0.0000,0.000000,0.000000,0.0,0.00,0.0
24598.700,-1.8979,7.5594,5.8508,0.0000,0.0000,0.0000,0.000000,0.000000,0.0,0.00,0.0
24598.710,-2.0056,7.5546,5.9130,0.0000,0.0000,0.0000,0.000000,0.000000,0.0,0.00,0.0
24598.720,-1.9075,7.5259,6.1834,0.0000,0.0000,0.0000,0.000000,0.000000,0.0,0.00,0.0
24598.730,-1.7519,7.5307,6.3916,0.0000,0.0000,0.0000,0.000000,0.000000,0.0,0.00,0.0
24598.739,-1.7759,7.5666,6.4442,0.0000,0.0000,0.0000,0.000000,0.000000,0.0,0.00,0.0
24598.750,-1.9673,7.6192,6.4514,0.0000,0.0000,0.0000,0.000000,0.000000,0.0,0.00,0.0
24598.760,-1.9745,7.6121,6.1595,0.0000,0.0000,0.0000,0.000000,0.000000,0.0,0.00,0.0
24598.770,-1.9194,7.5738,6.0231,0.0000,0.0000,0.0000,0.000000,0.000000,0.0,0.00,0.0
24598.782,-1.8165,7.6001,5.9250,0.0000,0.0000,0.0000,0.000000,0.000000,0.0,0.00,0.0
24598.790,-1.7926,7.5929,5.9704,0.0000,0.0000,0.0000,0.000000,0.000000,0.0,0.00,0.0
24598.800,-1.8787,7.5833,6.3007,0.0000,0.0000,0.0000,0.000000,0.000000,0.0,0.00,0.0
24598.810,-1.9218,7.6216,6.4753,0.0000,0.0000,0.0000,0.000000,0.000000,0.0,0.00,0.0
24598.820,-1.9673,7.5618,6.4371,0.0000,0.0000,0.0000,0.000000,0.000000,0.0,0.00,0.0
24598.830,-1.8572,7.5594,6.3294,0.0000,0.0000,0.0000,0.000000,0.000000,0.0,0.00,0.0
24598.841,-1.9505,7.5235,6.1523,0.0000,0.0000,0.0000,0.000000,0.000000,0.0,0.00,0.0
24598.850,-2.0032,7.6025,6.0949,0.0000,0.0000,0.0000,0.000000,0.000000,0.0,0.00,0.0
24598.861,-2.0822,7.5881,6.0374,0.0000,0.0000,0.0000,0.000000,0.000000,0.0,0.00,0.0
24598.871,-2.0247,7.5809,5.9752,0.0000,0.0000,0.0000,0.000000,0.000000,0.0,0.00,0.0
24598.881,-2.0128,7.6575,5.7574,0.0000,0.0000,0.0000,0.000000,0.000000,0.0,0.00,0.0
24598.891,-2.0415,7.6886,5.6833,0.0000,0.0000,0.0000,0.000000,0.000000,0.0,0.00,0.0
24598.901,-1.9649,7.6671,5.5995,0.0000,0.0000,0.0000,0.000000,0.000000,0.0,0.00,0.0
24598.911,-1.8859,7.6192,5.7957,0.0000,0.0000,0.0000,0.000000,0.000000,0.0,0.00,0.0
24598.921,-1.9170,7.6025,5.9680,0.0000,0.0000,0.0000,0.000000,0.000000,0.0,0.00,0.0
24598.931,-1.8716,7.6097,6.0111,0.0000,0.0000,0.0000,0.000000,0.000000,0.0,0.00,0.0
24598.943,-1.8333,7.6312,6.0063,0.0000,0.0000,0.0000,0.000000,0.000000,0.0,0.00,0.0
24598.951,-1.8500,7.6097,5.9752,0.0000,0.0000,0.0000,0.000000,0.000000,0.0,0.00,0.0
24598.961,-1.9075,7.5929,5.9130,0.0000,0.0000,0.0000,0.000000,0.000000,0.0,0.00,0.0
24598.971,-1.9529,7.6049,5.8125,0.0000,0.0000,0.0000,0.000000,0.000000,0.0,0.00,0.0
24598.981,-1.9936,7.6767,5.6737,0.0000,0.0000,0.0000,0.000000,0.000000,0.0,0.00,0.0
24598.991,-2.0152,7.6288,5.6426,0.0000,0.0000,0.0000,0.000000,0.000000,0.0,0.00,0.0
24599.001,-1.9649,7.6456,5.7646,0.0000,0.0000,0.0000,0.000000,0.000000,0.0,0.00,0.0
24599.011,-1.9529,7.6527,5.8029,0.0000,0.0000,0.0000,0.000000,0.000000,0.0,0.00,0.0
24599.020,-1.9266,7.6408,5.8723,0.0000,0.0000,0.0000,0.000000,0.000000,0.0,0.00,0.0
24599.031,-1.8692,7.6312,5.9130,0.0000,0.0000,0.0000,0.000000,0.000000,0.0,0.00,0.0
24599.041,-1.8931,7.6575,5.9704,0.0000,0.0000,0.0000,0.000000,0.000000,0.0,0.00,0.0
24599.050,-1.9529,7.6743,6.0422,0.0000,0.0000,0.0000,0.000000,0.000000,0.0,0.00,0.0
24599.061,-1.9697,7.7317,6.0135,0.0000,0.0000,0.0000,0.000000,0.000000,0.0,0.00,0.0
24599.071,-2.0152,7.7150,5.8819,0.0000,0.0000,0.0000,0.000000,0.000000,0.0,0.00,0.0
24599.081,-2.0128,7.6934,5.7646,0.0000,0.0000,0.0000,0.000000,0.000000,0.0,0.00,0.0
24599.091,-2.0391,7.6814,5.7670,0.0000,0.0000,0.0000,0.000000,0.000000,0.0,0.00,0.0
24599.103,-2.0343,7.6575,5.6521,0.0000,0.0000,0.0000,0.000000,0.000000,0.0,0.00,0.0
24599.111,-2.0295,7.6743,5.6713,0.0000,0.0000,0.0000,0.000000,0.000000,0.0,0.00,0.0
24599.121,-2.0367,7.6527,5.8627,0.0000,0.0000,0.0000,0.000000,0.000000,0.0,0.00,0.0
24599.130,-1.9936,7.6408,6.0422,0.0000,0.0000,0.0000,0.000000,0.000000,0.0,0.00,0.0
24599.141,-1.9816,7.6623,6.0757,0.0000,0.0000,0.0000,0.000000,0.000000,0.0,0.00,0.0
24599.152,-1.9242,7.6551,6.0063,0.0000,0.0000,0.0000,0.000000,0.000000,0.0,0.00,0.0
24599.161,-1.8883,7.6360,5.8244,0.0000,0.0000,0.0000,0.000000,0.000000,0.0,0.00,0.0
24599.171,-1.8022,7.6623,5.7096,0.0000,0.0000,0.0000,0.000000,0.000000,0.0,0.00,0.0
24599.180,-1.9242,7.6671,5.5899,0.0000,0.0000,0.0000,0.000000,0.000000,0.0,0.00,0.0
24599.192,-1.9721,7.6743,5.4607,0.0000,0.0000,0.0000,0.000000,0.000000,0.0,0.00,0.0
24599.202,-2.0008,7.6503,5.6809,0.0000,0.0000,0.0000,0.000000,0.000000,0.0,0.00,0.0
24599.211,-2.0223,7.6695,5.7215,0.0000,0.0000,0.0000,0.000000,0.000000,0.0,0.00,0.0
24599.222,-1.9816,7.6934,5.6976,0.0000,0.0000,0.0000,0.000000,0.000000,0.0,0.00,0.0
24599.232,-2.0152,7.6958,5.7096,0.0000,0.0000,0.0000,0.000000,0.000000,0.0,0.00,0.0
24599.241,-2.0319,7.7173,5.8675,0.0000,0.0000,0.0000,0.000000,0.000000,0.0,0.00,0.0
24599.252,-2.0032,7.6479,5.8771,0.0000,0.0000,0.0000,0.000000,0.000000,0.0,0.00,0.0
24599.263,-1.8740,7.6791,5.7814,0.0000,0.0000,0.0000,0.000000,0.000000,0.0,0.00,0.0
24599.271,-1.9458,7.6886,5.9369,0.0000,0.0000,0.0000,0.000000,0.000000,0.0,0.00,0.0
24599.282,-1.9051,7.6527,5.9537,0.0000,0.0000,0.0000,0.000000,0.000000,0.0,0.00,0.0
24599.294,-1.9314,7.6719,5.9920,0.0000,0.0000,0.0000,0.000000,0.000000,0.0,0.00,0.0
24599.302,-1.9434,7.6982,5.8579,0.0000,0.0000,0.0000,0.000000,0.000000,0.0,0.00,0.0
24599.312,-1.9673,7.7030,5.7814,0.0000,0.0000,0.0000,0.000000,0.000000,0.0,0.00,0.0
24599.321,-2.0008,7.7006,5.6474,0.0000,0.0000,0.0000,0.000000,0.000000,0.0,0.00,0.0
24599.332,-1.9697,7.6695,5.7168,0.0000,0.0000,0.0000,0.000000,0.000000,0.0,0.00,0.0
24599.342,-1.9601,7.7054,5.8029,0.0000,0.0000,0.0000,0.000000,0.000000,0.0,0.00,0.0
24599.351,-1.9601,7.7078,6.0255,0.0000,0.0000,0.0000,0.000000,0.000000,0.0,0.00,0.0
24599.362,-1.9553,7.6886,5.9489,0.0000,0.0000,0.0000,0.000000,0.000000,0.0,0.00,0.0
24599.372,-1.9577,7.6240,5.9920,0.0000,0.0000,0.0000,0.000000,0.000000,0.0,0.00,0.0
24599.382,-1.9721,7.7126,5.8986,0.0000,0.0000,0.0000,0.000000,0.000000,0.0,0.00,0.0
24599.392,-2.0247,7.6479,5.7598,0.0000,0.0000,0.0000,0.000000,0.000000,0.0,0.00,0.0
24599.401,-1.9362,7.7030,5.6904,0.0000,0.0000,0.0000,0.000000,0.000000,0.0,0.00,0.0
24599.413,-1.9649,7.6719,5.6450,0.0000,0.0000,0.0000,0.000000,0.000000,0.0,0.00,0.0
24599.427,-1.9314,7.6982,5.6258,0.0000,0.0000,0.0000,0.000000,0.000000,0.0,0.00,0.0
24599.433,-1.9314,7.7126,5.6402,0.0000,0.0000,0.0000,0.000000,0.000000,0.0,0.00,0.0
24599.448,-1.8716,7.7197,5.7574,0.0000,0.0000,0.0000,0.000000,0.000000,0.0,0.00,0.0
24599.453,-1.9003,7.6695,5.7503,0.0000,0.0000,0.0000,0.000000,0.000000,0.0,0.00,0.0
24599.462,-1.9194,7.6551,5.8771,0.0000,0.0000,0.0000,0.000000,0.000000,0.0,0.00,0.0
24599.473,-1.9697,7.6695,5.8747,0.0000,0.0000,0.0000,0.000000,0.000000,0.0,0.00,0.0
24599.482,-1.9888,7.7054,5.9273,0.0000,0.0000,0.0000,0.000000,0.000000,0.0,0.00,0.0
24599.492,-2.0510,7.6623,5.9321,0.0000,0.0000,0.0000,0.000000,0.000000,0.0,0.00,0.0
24599.503,-2.0534,7.6958,5.7096,0.0000,0.0000,0.0000,0.000000,0.000000,0.0,0.00,0.0
24599.513,-2.0247,7.7078,5.6426,0.0000,0.0000,0.0000,0.000000,0.000000,0.0,0.00,0.0
24599.522,-1.9960,7.6982,5.6928,0.0000,0.0000,0.0000,0.000000,0.000000,0.0,0.00,0.0
24599.533,-2.0175,7.7006,5.7550,0.0000,0.0000,0.0000,0.000000,0.000000,0.0,0.00,0.0
24599.542,-1.9721,7.6958,5.8914,0.0000,0.0000,0.0000,0.000000,0.000000,0.0,0.00,0.0
24599.552,-1.8381,7.6791,6.0015,0.0000,0.0000,0.0000,0.000000,0.000000,0.0,0.00,0.0
24599.563,-1.8405,7.6982,5.9872,0.0000,0.0000,0.0000,0.000000,0.000000,0.0,0.00,0.0
24599.572,-1.8931,7.6982,5.8675,0.0000,0.0000,0.0000,0.000000,0.000000,0.0,0.00,0.0
24599.584,-1.9410,7.6910,5.8867,0.0000,0.0000,0.0000,0.000000,0.000000,0.0,0.00,0.0
24599.593,-1.9362,7.6767,5.9513,0.0000,0.0000,0.0000,0.000000,0.000000,0.0,0.00,0.0
24599.602,-2.0032,7.7006,5.8173,0.0000,0.0000,0.0000,0.000000,0.000000,0.0,0.00,0.0
24599.613,-1.9577,7.6982,5.8005,0.0000,0.0000,0.0000,0.000000,0.000000,0.0,0.00,0.0
24599.622,-2.0056,7.7532,5.7503,0.0000,0.0000,0.0000,0.000000,0.000000,0.0,0.00,0.0
24599.633,-2.0175,7.6958,5.8197,0.0000,0.0000,0.0000,0.000000,0.000000,0.0,0.00,0.0
24599.643,-1.9721,7.7006,5.7814,0.0000,0.0000,0.0000,0.000000,0.000000,0.0,0.00,0.0
24599.653,-1.9362,7.6599,5.7574,0.0000,0.0000,0.0000,0.000000,0.000000,0.0,0.00,0.0
24599.663,-1.9458,7.7245,5.8125,0.0000,0.0000,0.0000,0.000000,0.000000,0.0,0.00,0.0
24599.673,-1.9529,7.6791,5.8891,0.0000,0.0000,0.0000,0.000000,0.000000,0.0,0.00,0.0
24599.683,-1.9266,7.6862,6.0231,0.0000,0.0000,0.0000,0.000000,0.000000,0.0,0.00,0.0
24599.693,-1.9051,7.7293,5.9943,0.0000,0.0000,0.0000,0.000000,0.000000,0.0,0.00,0.0
24599.703,-1.9553,7.6719,5.7024,0.0000,0.0000,0.0000,0.000000,0.000000,0.0,0.00,0.0
24599.713,-1.9840,7.6671,5.6545,0.0000,0.0000,0.0000,0.000000,0.000000,0.0,0.00,0.0
24599.723,-1.9481,7.6934,5.6880,0.0000,0.0000,0.0000,0.000000,0.000000,0.0,0.00,0.0
24599.732,-2.0008,7.6503,5.6665,0.0000,0.0000,0.0000,0.000000,0.000000,0.0,0.00,0.0
24599.745,-1.9769,7.6575,5.7455,0.0000,0.0000,0.0000,0.000000,0.000000,0.0,0.00,0.0
24599.754,-1.9745,7.6599,5.9154,0.0000,0.0000,0.0000,0.000000,0.000000,0.0,0.00,0.0
24599.763,-1.9960,7.7006,6.0542,0.0000,0.0000,0.0000,0.000000,0.000000,0.0,0.00,0.0
24599.773,-2.0199,7.7197,6.0326,0.0000,0.0000,0.0000,0.000000,0.000000,0.0,0.00,0.0
24599.784,-2.0295,7.6767,5.8962,0.0000,0.0000,0.0000,0.000000,0.000000,0.0,0.00,0.0
24599.794,-1.9840,7.7293,5.7622,0.0000,0.0000,0.0000,0.000000,0.000000,0.0,0.00,0.0
24599.804,-1.9745,7.7078,5.6306,0.0000,0.0000,0.0000,0.000000,0.000000,0.0,0.00,0.0
24599.813,-1.9099,7.7245,5.7718,0.0000,0.0000,0.0000,0.000000,0.000000,0.0,0.00,0.0
24599.824,-1.9529,7.6958,5.7072,0.0000,0.0000,0.0000,0.000000,0.000000,0.0,0.00,0.0
24599.834,-1.9003,7.6527,5.6761,0.0000,0.0000,0.0000,0.000000,0.000000,0.0,0.00,0.0
24599.844,-1.9481,7.6910,5.7431,0.0000,0.0000,0.0000,0.000000,0.000000,0.0,0.00,0.0
24599.854,-1.9601,7.7102,5.8005,0.0000,0.0000,0.0000,0.000000,0.000000,0.0,0.00,0.0
24599.863,-1.9027,7.7461,5.8388,0.0000,0.0000,0.0000,0.000000,0.000000,0.0,0.00,0.0
24599.874,-1.9386,7.6743,5.8532,0.0000,0.0000,0.0000,0.000000,0.000000,0.0,0.00,0.0
24599.884,-1.9745,7.6791,5.8914,0.0000,0.0000,0.0000,0.000000,0.000000,0.0,0.00,0.0
24599.894,-1.9745,7.6599,5.9106,0.0000,0.0000,0.0000,0.000000,0.000000,0.0,0.00,0.0
24599.907,-1.9912,7.6910,5.8651,0.0000,0.0000,0.0000,0.000000,0.000000,0.0,0.00,0.0
24599.914,-2.0032,7.6791,5.8627,0.0000,0.0000,0.0000,0.000000,0.000000,0.0,0.00,0.0
24599.925,-2.0056,7.7126,5.8077,0.0000,0.0000,0.0000,0.000000,0.000000,0.0,0.00,0.0
24599.934,-1.9936,7.7437,5.7407,0.0000,0.0000,0.0000,0.000000,0.000000,0.0,0.00,0.0
24599.944,-1.9338,7.7413,5.6880,0.0000,0.0000,0.0000,0.000000,0.000000,0.0,0.00,0.0
24599.954,-1.9027,7.7197,5.6928,0.0000,0.0000,0.0000,0.000000,0.000000,0.0,0.00,0.0
24599.965,-1.8596,7.6671,5.6761,0.0000,0.0000,0.0000,0.000000,0.000000,0.0,0.00,0.0
24599.975,-1.8333,7.6886,5.8197,0.0000,0.0000,0.0000,0.000000,0.000000,0.0,0.00,0.0
24599.985,-1.9170,7.6814,5.7742,0.0000,0.0000,0.0000,0.000000,0.000000,0.0,0.00,0.0
24599.995,-1.9434,7.6910,5.7503,0.0000,0.0000,0.0000,0.000000,0.000000,0.0,0.00,0.0
24600.004,-2.0175,7.7150,5.7885,0.0000,0.0000,0.0000,0.000000,0.000000,0.0,0.00,0.0
24600.015,-1.9960,7.7006,5.7862,0.0000,0.0000,0.0000,0.000000,0.000000,0.0,0.00,0.0
24600.025,-1.9793,7.6982,5.7885,0.0000,0.0000,0.0000,0.000000,0.000000,0.0,0.00,0.0
24600.035,-1.9458,7.6791,5.8484,0.0000,0.0000,0.0000,0.000000,0.000000,0.0,0.00,0.0
24600.045,-1.9697,7.6934,5.8053,0.0000,0.0000,0.0000,0.000000,0.000000,0.0,0.00,0.0
24600.055,-2.0295,7.6719,5.7072,0.0000,0.0000,0.0000,0.000000,0.000000,0.0,0.00,0.0
24600.066,-1.9410,7.6647,5.8340,0.0000,0.0000,0.0000,0.000000,0.000000,0.0,0.00,0.0
24600.075,-1.9410,7.7221,5.7598,0.0000,0.0000,0.0000,0.000000,0.000000,0.0,0.00,0.0
24600.085,-1.9553,7.7580,5.8340,0.0000,0.0000,0.0000,0.000000,0.000000,0.0,0.00,0.0
24600.095,-1.9194,7.7126,5.8532,0.0000,0.0000,0.0000,0.000000,0.000000,0.0,0.00,0.0
24600.105,-1.9290,7.6910,5.8484,0.0000,0.0000,0.0000,0.000000,0.000000,0.0,0.00,0.0
24600.116,-1.9194,7.7245,5.8603,0.0000,0.0000,0.0000,0.000000,0.000000,0.0,0.00,0.0
24600.125,-1.9314,7.7173,5.8723,0.0000,0.0000,0.0000,0.000000,0.000000,0.0,0.00,0.0
24600.135,-1.9769,7.7508,5.7742,0.0000,0.0000,0.0000,0.000000,0.000000,0.0,0.00,0.0
24600.145,-1.9290,7.6719,5.8675,0.0000,0.0000,0.0000,0.000000,0.000000,0.0,0.00,0.0
24600.155,-1.9553,7.6838,5.8077,0.0000,0.0000,0.0000,0.000000,0.000000,0.0,0.00,0.0
24600.165,-1.9505,7.7269,5.8244,0.0000,0.0000,0.0000,0.000000,0.000000,0.0,0.00,0.0
24600.175,-1.9625,7.6503,5.7096,0.0000,0.0000,0.0000,0.000000,0.000000,0.0,0.00,0.0
24600.185,-1.9027,7.6934,5.6928,0.0000,0.0000,0.0000,0.000000,0.000000,0.0,0.00,0.0
24600.195,-1.9434,7.7939,5.6474,0.0000,0.0000,0.0000,0.000000,0.000000,0.0,0.00,0.0
24600.205,-1.9673,7.7532,5.7550,0.0000,0.0000,0.0000,0.000000,0.000000,0.0,0.00,0.0
24600.215,-1.8931,7.7556,5.7981,0.0000,0.0000,0.0000,0.000000,0.000000,0.0,0.00,0.0
24600.228,-1.8955,7.6791,5.8603,0.0000,0.0000,0.0000,0.000000,0.000000,0.0,0.00,0.0
24600.235,-1.8931,7.6982,5.8388,0.0000,0.0000,0.0000,0.000000,0.000000,0.0,0.00,0.0
24600.245,-1.9625,7.6934,5.8460,0.0000,0.0000,0.0000,0.000000,0.000000,0.0,0.00,0.0
24600.256,-1.9888,7.7317,5.8292,0.0000,0.0000,0.0000,0.000000,0.000000,0.0,0.00,0.0
24600.265,-1.9673,7.7389,5.7311,0.0000,0.0000,0.0000,0.000000,0.000000,0.0,0.00,0.0
24600.275,-1.9266,7.7485,5.7766,0.0000,0.0000,0.0000,0.000000,0.000000,0.0,0.00,0.0
24600.285,-1.9553,7.7628,5.7862,0.0000,0.0000,0.0000,0.000000,0.000000,0.0,0.00,0.0
24600.296,-1.9649,7.7341,5.7742,0.0000,0.0000,0.0000,0.000000,0.000000,0.0,0.00,0.0
24600.306,-1.9481,7.7532,5.8627,0.0000,0.0000,0.0000,0.000000,0.000000,0.0,0.00,0.0
24600.316,-1.9912,7.6910,5.7766,0.0000,0.0000,0.0000,0.000000,0.000000,0.0,0.00,0.0
24600.326,-2.0032,7.6958,5.7024,0.0000,0.0000,0.0000,0.000000,0.000000,0.0,0.00,0.0
24600.336,-1.8931,7.6910,5.7335,0.0000,0.0000,0.0000,0.000000,0.000000,0.0,0.00,0.0
24600.346,-1.9266,7.7054,5.8125,0.0000,0.0000,0.0000,0.000000,0.000000,0.0,0.00,0.0
24600.356,-1.8620,7.7197,5.9178,0.0000,0.0000,0.0000,0.000000,0.000000,0.0,0.00,0.0
24600.366,-1.9314,7.7604,5.9082,0.0000,0.0000,0.0000,0.000000,0.000000,0.0,0.00,0.0
24600.376,-1.8022,7.7197,5.8221,0.0000,0.0000,0.0000,0.000000,0.000000,0.0,0.00,0.0
24600.387,-1.8405,7.7197,5.8221,0.0000,0.0000,0.0000,0.000000,0.000000,0.0,0.00,0.0
24600.396,-1.9194,7.7245,5.6019,0.0000,0.0000,0.0000,0.000000,0.000000,0.0,0.00,0.0
24600.406,-1.9099,7.7102,5.5947,0.0000,0.0000,0.0000,0.000000,0.000000,0.0,0.00,0.0
24600.416,-1.9960,7.7580,5.6330,0.0000,0.0000,0.0000,0.000000,0.000000,0.0,0.00,0.0
24600.426,-1.9960,7.6910,5.6569,0.0000,0.0000,0.0000,0.000000,0.000000,0.0,0.00,0.0
24600.436,-1.9529,7.7078,5.7646,0.0000,0.0000,0.0000,0.000000,0.000000,0.0,0.00,0.0
24600.454,-1.9553,7.7173,5.7431,0.0000,0.0000,0.0000,0.000000,0.000000,0.0,0.00,0.0
24600.465,-1.8931,7.7030,5.9034,0.0000,0.0000,0.0000,0.000000,0.000000,0.0,0.00,0.0
24600.466,-1.9338,7.6862,5.8388,0.0000,0.0000,0.0000,0.000000,0.000000,0.0,0.00,0.0
24600.475,-1.9338,7.6814,5.8268,0.0000,0.0000,0.0000,0.000000,0.000000,0.0,0.00,0.0
24600.485,-1.8716,7.7197,5.8532,0.0000,0.0000,0.0000,0.000000,0.000000,0.0,0.00,0.0
24600.496,-1.9146,7.7030,5.7431,0.0000,0.0000,0.0000,0.000000,0.000000,0.0,0.00,0.0
24600.506,-1.9577,7.7508,5.7048,0.0000,0.0000,0.0000,0.000000,0.000000,0.0,0.00,0.0
24600.515,-1.9625,7.6982,5.7670,0.0000,0.0000,0.0000,0.000000,0.000000,0.0,0.00,0.0
24600.526,-1.9099,7.7508,5.8436,0.0000,0.0000,0.0000,0.000000,0.000000,0.0,0.00,0.0
24600.536,-1.9553,7.7508,5.7766,0.0000,0.0000,0.0000,0.000000,0.000000,0.0,0.00,0.0
24600.549,-1.9099,7.7628,5.7933,0.0000,0.0000,0.0000,0.000000,0.000000,0.0,0.00,0.0
24600.556,-1.9027,7.7078,5.8795,0.0000,0.0000,0.0000,0.000000,0.000000,0.0,0.00,0.0
24600.565,-1.8859,7.7078,5.9058,0.0000,0.0000,0.0000,0.000000,0.000000,0.0,0.00,0.0
24600.576,-1.8955,7.7054,5.8053,0.0000,0.0000,0.0000,0.000000,0.000000,0.0,0.00,0.0
24600.586,-1.9362,7.7054,5.7766,0.0000,0.0000,0.0000,0.000000,0.000000,0.0,0.00,0.0
24600.596,-1.9840,7.7006,5.6976,0.0000,0.0000,0.0000,0.000000,0.000000,0.0,0.00,0.0
24600.606,-1.9386,7.7796,5.7144,0.0000,0.0000,0.0000,0.000000,0.000000,0.0,0.00,0.0
24600.616,-1.9099,7.7628,5.6234,0.0000,0.0000,0.0000,0.000000,0.000000,0.0,0.00,0.0
24600.627,-1.9194,7.7006,5.7670,0.0000,0.0000,0.0000,0.000000,0.000000,0.0,0.00,0.0
24600.637,-1.8620,7.7413,5.8436,0.0000,0.0000,0.0000,0.000000,0.000000,0.0,0.00,0.0
24600.647,-1.8381,7.7102,5.8867,0.0000,0.0000,0.0000,0.000000,0.000000,0.0,0.00,0.0
24600.657,-1.8764,7.7245,5.9728,0.0000,0.0000,0.0000,0.000000,0.000000,0.0,0.00,0.0
24600.667,-1.9410,7.7126,5.8843,0.0000,0.0000,0.0000,0.000000,0.000000,0.0,0.00,0.0
24600.676,-1.9242,7.7532,5.8723,0.0000,0.0000,0.0000,0.000000,0.000000,0.0,0.00,0.0
24600.687,-1.8811,7.7461,5.7622,0.0000,0.0000,0.0000,0.000000,0.000000,0.0,0.00,0.0
24600.697,-1.9338,7.7413,5.7048,0.0000,0.0000,0.0000,0.000000,0.000000,0.0,0.00,0.0
24600.710,-1.9027,7.7269,5.5828,0.0000,0.0000,0.0000,0.000000,0.000000,0.0,0.00,0.0
24600.717,-1.9601,7.7173,5.6856,0.0000,0.0000,0.0000,0.000000,0.000000,0.0,0.00,0.0
24600.726,-1.9481,7.6767,5.6976,0.0000,0.0000,0.0000,0.000000,0.000000,0.0,0.00,0.0
24600.737,-1.9481,7.6551,5.8819,0.0000,0.0000,0.0000,0.000000,0.000000,0.0,0.00,0.0
24600.747,-1.9338,7.7030,5.8532,0.0000,0.0000,0.0000,0.000000,0.000000,0.0,0.00,0.0
24600.756,-1.8452,7.7389,5.9513,0.0000,0.0000,0.0000,0.000000,0.000000,0.0,0.00,0.0
24600.767,-1.8883,7.7006,5.9250,0.0000,0.0000,0.0000,0.000000,0.000000,0.0,0.00,0.0
24600.777,-1.8548,7.7173,5.9465,0.0000,0.0000,0.0000,0.000000,0.000000,0.0,0.00,0.0
24600.786,-1.9123,7.7341,5.9465,0.0000,0.0000,0.0000,0.000000,0.000000,0.0,0.00,0.0
24600.797,-1.9099,7.7485,5.7981,0.0000,0.0000,0.0000,0.000000,0.000000,0.0,0.00,0.0
24600.807,-1.9601,7.7508,5.6330,0.0000,0.0000,0.0000,0.000000,0.000000,0.0,0.00,0.0
24600.817,-1.8644,7.7437,5.5875,0.0000,0.0000,0.0000,0.000000,0.000000,0.0,0.00,0.0
24600.827,-1.9816,7.7532,5.4631,0.0000,0.0000,0.0000,0.000000,0.000000,0.0,0.00,0.0
24600.836,-1.9266,7.7293,5.5851,0.0000,0.0000,0.0000,0.000000,0.000000,0.0,0.00,0.0
24600.848,-1.9362,7.7102,5.7885,0.0000,0.0000,0.0000,0.000000,0.000000,0.0,0.00,0.0
24600.858,-1.8548,7.7508,5.8938,0.0000,0.0000,0.0000,0.000000,0.000000,0.0,0.00,0.0
24600.869,-1.8859,7.6719,5.8891,0.0000,0.0000,0.0000,0.000000,0.000000,0.0,0.00,0.0
24600.878,-1.9529,7.6934,5.9178,0.0000,0.0000,0.0000,0.000000,0.000000,0.0,0.00,0.0
24600.888,-1.9123,7.7461,5.8292,0.0000,0.0000,0.0000,0.000000,0.000000,0.0,0.00,0.0
24600.898,-1.9194,7.7556,5.6976,0.0000,0.0000,0.0000,0.000000,0.000000,0.0,0.00,0.0
24600.908,-1.8931,7.7293,5.7598,0.0000,0.0000,0.0000,0.000000,0.000000,0.0,0.00,0.0
24600.918,-1.8596,7.7556,5.6928,0.0000,0.0000,0.0000,0.000000,0.000000,0.0,0.00,0.0
24600.927,-1.8811,7.7867,5.7096,0.0000,0.0000,0.0000,0.000000,0.000000,0.0,0.00,0.0
24600.938,-1.9194,7.7748,5.8101,0.0000,0.0000,0.0000,0.000000,0.000000,0.0,0.00,0.0
24600.947,-1.9099,7.7293,5.8675,0.0000,0.0000,0.0000,0.000000,0.000000,0.0,0.00,0.0
24600.958,-1.9027,7.7293,5.8723,0.0000,0.0000,0.0000,0.000000,0.000000,0.0,0.00,0.0
24600.968,-1.9434,7.7365,5.8364,0.0000,0.0000,0.0000,0.000000,0.000000,0.0,0.00,0.0
24600.977,-1.9075,7.7461,5.7598,0.0000,0.0000,0.0000,0.000000,0.000000,0.0,0.00,0.0
24600.988,-1.9458,7.7652,5.6785,0.0000,0.0000,0.0000,0.000000,0.000000,0.0,0.00,0.0
24600.997,-1.9458,7.7963,5.6306,0.0000,0.0000,0.0000,0.000000,0.000000,0.0,0.00,0.0
24601.007,-1.9601,7.7580,5.6976,0.0000,0.0000,0.0000,0.000000,0.000000,0.0,0.00,0.0
24601.018,-1.9218,7.7485,5.7670,0.0000,0.0000,0.0000,0.000000,0.000000,0.0,0.00,0.0
24601.030,-1.9242,7.7413,5.7503,0.0000,0.0000,0.0000,0.000000,0.000000,0.0,0.00,0.0
24601.037,-1.8931,7.7772,5.9226,0.0000,0.0000,0.0000,0.000000,0.000000,0.0,0.00,0.0
24601.048,-1.8835,7.7413,5.9273,0.0000,0.0000,0.0000,0.000000,0.000000,0.0,0.00,0.0
24601.058,-1.8548,7.7772,5.8436,0.0000,0.0000,0.0000,0.000000,0.000000,0.0,0.00,0.0
24601.068,-1.8740,7.7341,5.7550,0.0000,0.0000,0.0000,0.000000,0.000000,0.0,0.00,0.0
24601.078,-1.9194,7.7461,5.6402,0.0000,0.0000,0.0000,0.000000,0.000000,0.0,0.00,0.0
24601.088,-1.9242,7.7891,5.6545,0.0000,0.0000,0.0000,0.000000,0.000000,0.0,0.00,0.0
24601.098,-1.9816,7.7700,5.6785,0.0000,0.0000,0.0000,0.000000,0.000000,0.0,0.00,0.0
24601.108,-1.9745,7.7245,5.6617,0.0000,0.0000,0.0000,0.000000,0.000000,0.0,0.00,0.0
24601.118,-1.9505,7.7604,5.8149,0.0000,0.0000,0.0000,0.000000,0.000000,0.0,0.00,0.0
24601.127,-1.9194,7.8131,5.7981,0.0000,0.0000,0.0000,0.000000,0.000000,0.0,0.00,0.0
24601.138,-1.9242,7.7820,5.7024,0.0000,0.0000,0.0000,0.000000,0.000000,0.0,0.00,0.0
24601.148,-1.8333,7.7389,5.7981,0.0000,0.0000,0.0000,0.000000,0.000000,0.0,0.00,0.0
24601.157,-1.7950,7.7796,5.6067,0.0000,0.0000,0.0000,0.000000,0.000000,0.0,0.00,0.0
24601.168,-1.8596,7.7173,5.6210,0.0000,0.0000,0.0000,0.000000,0.000000,0.0,0.00,0.0
24601.179,-1.7806,7.7221,5.6163,0.0000,0.0000,0.0000,0.000000,0.000000,0.0,0.00,0.0
24601.190,-1.8285,7.7628,5.6737,0.0000,0.0000,0.0000,0.000000,0.000000,0.0,0.00,0.0
24601.198,-1.9601,7.7915,5.7814,0.0000,0.0000,0.0000,0.000000,0.000000,0.0,0.00,0.0
24601.209,-1.9936,7.8011,5.7838,0.0000,0.0000,0.0000,0.000000,0.000000,0.0,0.00,0.0
24601.219,-2.0008,7.7293,5.7550,0.0000,0.0000,0.0000,0.000000,0.000000,0.0,0.00,0.0
24601.229,-2.0199,7.7413,5.7335,0.0000,0.0000,0.0000,0.000000,0.000000,0.0,0.00,0.0
24601.239,-1.9242,7.7413,5.7239,0.0000,0.0000,0.0000,0.000000,0.000000,0.0,0.00,0.0
24601.249,-1.8811,7.7461,5.8268,0.0000,0.0000,0.0000,0.000000,0.000000,0.0,0.00,0.0
24601.259,-1.9314,7.7532,5.9106,0.0000,0.0000,0.0000,0.000000,0.000000,0.0,0.00,0.0
24601.269,-1.9697,7.7628,5.7718,0.0000,0.0000,0.0000,0.000000,0.000000,0.0,0.00,0.0
24601.279,-1.9242,7.7820,5.6474,0.0000,0.0000,0.0000,0.000000,0.000000,0.0,0.00,0.0
24601.289,-1.8955,7.7963,5.6282,0.0000,0.0000,0.0000,0.000000,0.000000,0.0,0.00,0.0
24601.299,-1.8716,7.8657,5.5612,0.0000,0.0000,0.0000,0.000000,0.000000,0.0,0.00,0.0
24601.309,-1.9529,7.7580,5.6569,0.0000,0.0000,0.0000,0.000000,0.000000,0.0,0.00,0.0
24601.319,-1.9266,7.7820,5.7263,0.0000,0.0000,0.0000,0.000000,0.000000,0.0,0.00,0.0
24601.329,-1.9218,7.7245,5.7574,0.0000,0.0000,0.0000,0.000000,0.000000,0.0,0.00,0.0
24601.339,-1.8955,7.7628,5.8268,0.0000,0.0000,0.0000,0.000000,0.000000,0.0,0.00,0.0
24601.351,-1.8979,7.7724,5.9585,0.0000,0.0000,0.0000,0.000000,0.000000,0.0,0.00,0.0
24601.358,-1.8955,7.7365,5.8268,0.0000,0.0000,0.0000,0.000000,0.000000,0.0,0.00,0.0
24601.369,-1.9625,7.7508,5.7622,0.0000,0.0000,0.0000,0.000000,0.000000,0.0,0.00,0.0
24601.379,-1.9434,7.7269,5.7598,0.0000,0.0000,0.0000,0.000000,0.000000,0.0,0.00,0.0
24601.388,-1.9027,7.7628,5.7144,0.0000,0.0000,0.0000,0.000000,0.000000,0.0,0.00,0.0
24601.400,-1.9458,7.7867,5.6258,0.0000,0.0000,0.0000,0.000000,0.000000,0.0,0.00,0.0
24601.410,-1.9769,7.7413,5.5564,0.0000,0.0000,0.0000,0.000000,0.000000,0.0,0.00,0.0
24601.419,-1.9075,7.7197,5.6043,0.0000,0.0000,0.0000,0.000000,0.000000,0.0,0.00,0.0
24601.430,-1.8787,7.8059,5.6665,0.0000,0.0000,0.0000,0.000000,0.000000,0.0,0.00,0.0
24601.439,-1.9146,7.7987,5.6402,0.0000,0.0000,0.0000,0.000000,0.000000,0.0,0.00,0.0
24601.457,-1.8931,7.7676,5.6474,0.0000,0.0000,0.0000,0.000000,0.000000,0.0,0.00,0.0
24601.460,-1.8668,7.7700,5.7670,0.0000,0.0000,0.0000,0.000000,0.000000,0.0,0.00,0.0
24601.474,-1.8979,7.7772,5.7885,0.0000,0.0000,0.0000,0.000000,0.000000,0.0,0.00,0.0
24601.480,-1.8979,7.7748,5.7383,0.0000,0.0000,0.0000,0.000000,0.000000,0.0,0.00,0.0
24601.490,-1.9553,7.7413,5.6019,0.0000,0.0000,0.0000,0.000000,0.000000,0.0,0.00,0.0
24601.500,-1.9410,7.7508,5.7000,0.0000,0.0000,0.0000,0.000000,0.000000,0.0,0.00,0.0
24601.511,-1.9912,7.7556,5.6833,0.0000,0.0000,0.0000,0.000000,0.000000,0.0,0.00,0.0
24601.520,-1.9170,7.7700,5.7957,0.0000,0.0000,0.0000,0.000000,0.000000,0.0,0.00,0.0
24601.530,-1.8955,7.7676,5.6737,0.0000,0.0000,0.0000,0.000000,0.000000,0.0,0.00,0.0
24601.540,-1.8476,7.8011,5.6043,0.0000,0.0000,0.0000,0.000000,0.000000,0.0,0.00,0.0
24601.551,-1.8955,7.8394,5.7072,0.0000,0.0000,0.0000,0.000000,0.000000,0.0,0.00,0.0
24601.560,-1.8979,7.7891,5.7527,0.0000,0.0000,0.0000,0.000000,0.000000,0.0,0.00,0.0
24601.570,-1.9410,7.7748,5.7096,0.0000,0.0000,0.0000,0.000000,0.000000,0.0,0.00,0.0
24601.580,-1.9649,7.7389,5.8747,0.0000,0.0000,0.0000,0.000000,0.000000,0.0,0.00,0.0
24601.590,-1.9362,7.7820,5.6521,0.0000,0.0000,0.0000,0.000000,0.000000,0.0,0.00,0.0
24601.600,-1.9386,7.7389,5.6498,0.0000,0.0000,0.0000,0.000000,0.000000,0.0,0.00,0.0
24601.610,-1.9649,7.7532,5.6904,0.0000,0.0000,0.0000,0.000000,0.000000,0.0,0.00,0.0
24601.620,-1.9936,7.7820,5.6617,0.0000,0.0000,0.0000,0.000000,0.000000,0.0,0.00,0.0
24601.630,-1.9673,7.7532,5.7694,0.0000,0.0000,0.0000,0.000000,0.000000,0.0,0.00,0.0
24601.640,-1.9577,7.7485,5.8556,0.0000,0.0000,0.0000,0.000000,0.000000,0.0,0.00,0.0
24601.650,-1.9481,7.7102,5.8244,0.0000,0.0000,0.0000,0.000000,0.000000,0.0,0.00,0.0
24601.660,-1.9362,7.7365,5.7646,0.0000,0.0000,0.0000,0.000000,0.000000,0.0,0.00,0.0
24601.673,-1.8979,7.7628,5.8268,0.0000,0.0000,0.0000,0.000000,0.000000,0.0,0.00,0.0
24601.680,-1.8955,7.7820,5.6450,0.0000,0.0000,0.0000,0.000000,0.000000,0.0,0.00,0.0
24601.689,-1.8022,7.8083,5.5851,0.0000,0.0000,0.0000,0.000000,0.000000,0.0,0.00,0.0
24601.700,-1.8309,7.7867,5.5373,0.0000,0.0000,0.0000,0.000000,0.000000,0.0,0.00,0.0
24601.710,-1.9194,7.8083,5.4822,0.0000,0.0000,0.0000,0.000000,0.000000,0.0,0.00,0.0
24601.720,-1.9529,7.8178,5.6234,0.0000,0.0000,0.0000,0.000000,0.000000,0.0,0.00,0.0
24601.731,-1.9745,7.7652,5.7048,0.0000,0.0000,0.0000,0.000000,0.000000,0.0,0.00,0.0
24601.740,-1.9840,7.7580,5.9058,0.0000,0.0000,0.0000,0.000000,0.000000,0.0,0.00,0.0
24601.751,-1.9673,7.7269,5.9034,0.0000,0.0000,0.0000,0.000000,0.000000,0.0,0.00,0.0
24601.761,-1.9697,7.7269,5.8029,0.0000,0.0000,0.0000,0.000000,0.000000,0.0,0.00,0.0
24601.770,-1.9673,7.7652,5.7933,0.0000,0.0000,0.0000,0.000000,0.000000,0.0,0.00,0.0
24601.781,-1.9003,7.7556,5.6880,0.0000,0.0000,0.0000,0.000000,0.000000,0.0,0.00,0.0
24601.791,-1.9386,7.7628,5.5899,0.0000,0.0000,0.0000,0.000000,0.000000,0.0,0.00,0.0
24601.801,-1.9218,7.7437,5.7479,0.0000,0.0000,0.0000,0.000000,0.000000,0.0,0.00,0.0
24601.811,-1.8859,7.7269,5.7263,0.0000,0.0000,0.0000,0.000000,0.000000,0.0,0.00,0.0
24601.820,-1.8285,7.7939,5.7144,0.0000,0.0000,0.0000,0.000000,0.000000,0.0,0.00,0.0
24601.834,-1.8333,7.7772,5.8388,0.0000,0.0000,0.0000,0.000000,0.000000,0.0,0.00,0.0
24601.842,-1.9386,7.7939,5.7790,0.0000,0.0000,0.0000,0.000000,0.000000,0.0,0.00,0.0
24601.851,-1.9481,7.7628,5.7455,0.0000,0.0000,0.0000,0.000000,0.000000,0.0,0.00,0.0
24601.860,-1.9840,7.7532,5.6402,0.0000,0.0000,0.0000,0.000000,0.000000,0.0,0.00,0.0
24601.871,-1.9481,7.7915,5.7120,0.0000,0.0000,0.0000,0.000000,0.000000,0.0,0.00,0.0
24601.880,-1.9960,7.7628,5.7215,0.0000,0.0000,0.0000,0.000000,0.000000,0.0,0.00,0.0
24601.891,-2.0247,7.7748,5.7311,0.0000,0.0000,0.0000,0.000000,0.000000,0.0,0.00,0.0
24601.901,-2.0199,7.7078,5.6809,0.0000,0.0000,0.0000,0.000000,0.000000,0.0,0.00,0.0
24601.911,-1.9769,7.7556,5.7431,0.0000,0.0000,0.0000,0.000000,0.000000,0.0,0.00,0.0
24601.921,-1.9027,7.7724,5.6665,0.0000,0.0000,0.0000,0.000000,0.000000,0.0,0.00,0.0
24601.931,-1.8046,7.8394,5.6689,0.0000,0.0000,0.0000,0.000000,0.000000,0.0,0.00,0.0
24601.941,-1.8357,7.7724,5.6521,0.0000,0.0000,0.0000,0.000000,0.000000,0.0,0.00,0.0
24601.953,-1.8692,7.7820,5.6234,0.0000,0.0000,0.0000,0.000000,0.000000,0.0,0.00,0.0
24601.962,-1.8548,7.7891,5.7359,0.0000,0.0000,0.0000,0.000000,0.000000,0.0,0.00,0.0
24601.972,-2.0032,7.7389,5.6115,0.0000,0.0000,0.0000,0.000000,0.000000,0.0,0.00,0.0
24601.982,-2.0104,7.7245,5.5828,0.0000,0.0000,0.0000,0.000000,0.000000,0.0,0.00,0.0
24601.994,-1.9697,7.7365,5.7144,0.0000,0.0000,0.0000,0.000000,0.000000,0.0,0.00,0.0
24602.002,-1.9218,7.7341,5.6761,0.0000,0.0000,0.0000,0.000000,0.000000,0.0,0.00,0.0
24602.012,-1.9075,7.7437,5.7168,0.0000,0.0000,0.0000,0.000000,0.000000,0.0,0.00,0.0
24602.022,-1.9912,7.7221,5.7718,0.0000,0.0000,0.0000,0.000000,0.000000,0.0,0.00,0.0
24602.032,-1.9912,7.8107,5.8436,0.0000,0.0000,0.0000,40.077666,116.428978,43.6,0.00,157.6
24602.042,-1.9505,7.7867,5.9250,0.0000,0.0000,0.0000,40.077666,116.428978,43.6,0.00,157.6
24602.051,-1.9840,7.7365,5.8149,0.0000,0.0000,0.0000,40.077666,116.428978,43.6,0.00,157.6
24602.062,-1.9793,7.7820,5.7550,0.0000,0.0000,0.0000,40.077666,116.428978,43.6,0.00,157.6
24602.072,-1.8955,7.7843,5.6856,0.0000,0.0000,0.0000,40.077666,116.428978,43.6,0.00,157.6
24602.082,-1.9146,7.8155,5.5804,0.0000,0.0000,0.0000,40.077666,116.428978,43.6,0.00,157.6
24602.092,-1.8692,7.8322,5.5397,0.0000,0.0000,0.0000,40.077666,116.428978,43.6,0.00,157.6
24602.101,-1.8811,7.7652,5.5253,0.0000,0.0000,0.0000,40.077666,116.428978,43.6,0.00,157.6
24602.112,-1.9410,7.7221,5.6833,0.0000,0.0000,0.0000,40.077666,116.428978,43.6,0.00,157.6
24602.122,-1.9075,7.7628,5.6785,0.0000,0.0000,0.0000,40.077666,116.428978,43.6,0.00,157.6
24602.132,-1.9673,7.8131,5.8149,0.0000,0.0000,0.0000,40.077666,116.428978,43.6,0.00,157.6
24602.142,-1.9816,7.7700,5.8460,0.0000,0.0000,0.0000,40.077666,116.428978,43.6,0.00,157.6
24602.155,-1.9816,7.7652,5.8244,0.0000,0.0000,0.0000,40.077666,116.428978,43.6,0.00,157.6
24602.162,-1.9458,7.7604,5.7431,0.0000,0.0000,0.0000,40.077666,116.428978,43.6,0.00,157.6
24602.172,-1.9840,7.7245,5.7000,0.0000,0.0000,0.0000,40.077666,116.428978,43.6,0.00,157.6
24602.182,-1.9266,7.7820,5.7598,0.0000,0.0000,0.0000,40.077666,116.428978,43.6,0.00,157.6
24602.192,-1.9123,7.7891,5.7646,0.0000,0.0000,0.0000,40.077666,116.428978,43.6,0.00,157.6
24602.202,-1.9075,7.7676,5.6713,0.0000,0.0000,0.0000,40.077666,116.428978,43.6,0.00,157.6
24602.211,-1.8333,7.7963,5.6785,0.0000,0.0000,0.0000,40.077666,116.428978,43.6,0.00,157.6
24602.222,-1.8357,7.8059,5.5469,0.0000,0.0000,0.0000,40.077666,116.428978,43.6,0.00,157.6
24602.232,-1.8811,7.7843,5.5947,0.0000,0.0000,0.0000,40.077666,116.428978,43.6,0.00,157.6
24602.242,-1.9458,7.7700,5.6258,0.0000,0.0000,0.0000,40.077666,116.428978,43.6,0.00,157.6
24602.252,-1.9745,7.7365,5.6641,0.0000,0.0000,0.0000,40.077666,116.428978,43.6,0.00,157.6
24602.262,-1.9434,7.7437,5.7335,0.0000,0.0000,0.0000,40.077666,116.428978,43.6,0.00,157.6
24602.271,-1.9075,7.7700,5.8532,0.0000,0.0000,0.0000,40.077666,116.428978,43.6,0.00,157.6
24602.283,-1.9170,7.7221,5.8149,0.0000,0.0000,0.0000,40.077666,116.428978,43.6,0.00,157.6
24602.293,-1.9721,7.7461,5.7000,0.0000,0.0000,0.0000,40.077666,116.428978,43.6,0.00,157.6
24602.303,-1.9625,7.7820,5.6809,0.0000,0.0000,0.0000,40.077666,116.428978,43.6,0.00,157.6
24602.314,-1.9481,7.7628,5.6402,0.0000,0.0000,0.0000,40.077666,116.428978,43.6,0.00,157.6
24602.323,-1.9864,7.7485,5.6976,0.0000,0.0000,0.0000,40.077666,116.428978,43.6,0.00,157.6
24602.333,-1.9912,7.8059,5.6545,0.0000,0.0000,0.0000,40.077666,116.428978,43.6,0.00,157.6
24602.343,-1.9529,7.7556,5.6354,0.0000,0.0000,0.0000,40.077666,116.428978,43.6,0.00,157.6
24602.353,-1.9362,7.7580,5.6809,0.0000,0.0000,0.0000,40.077666,116.428978,43.6,0.00,157.6
24602.363,-1.8596,7.7341,5.8125,0.0000,0.0000,0.0000,40.077666,116.428978,43.6,0.00,157.6
24602.373,-1.8787,7.7413,5.7646,0.0000,0.0000,0.0000,40.077666,116.428978,43.6,0.00,157.6
24602.382,-1.9458,7.7843,5.7694,0.0000,0.0000,0.0000,40.077666,116.428978,43.6,0.00,157.6
24602.393,-2.0391,7.7604,5.6043,0.0000,0.0000,0.0000,40.077666,116.428978,43.6,0.00,157.6
24602.403,-2.0175,7.7532,5.7335,0.0000,0.0000,0.0000,40.077666,116.428978,43.6,0.00,157.6
24602.412,-1.9673,7.7628,5.5995,0.0000,0.0000,0.0000,40.077666,116.428978,43.6,0.00,157.6
24602.422,-1.8883,7.8226,5.7311,0.0000,0.0000,0.0000,40.077666,116.428978,43.6,0.00,157.6
24602.432,-1.8333,7.7604,5.7024,0.0000,0.0000,0.0000,40.077666,116.428978,43.6,0.00,157.6
24602.443,-1.8811,7.7843,5.7981,0.0000,0.0000,0.0000,40.077666,116.428978,43.6,0.00,157.6
24602.461,-1.9123,7.7508,5.7838,0.0000,0.0000,0.0000,40.077666,116.428978,43.6,0.00,157.6
24602.478,-1.8955,7.7365,5.6952,0.0000,0.0000,0.0000,40.077666,116.428978,43.6,0.00,157.6
24602.478,-1.9697,7.7963,5.6019,0.0000,0.0000,0.0000,40.077666,116.428978,43.6,0.00,157.6
24602.483,-1.9410,7.7437,5.5636,0.0000,0.0000,0.0000,40.077666,116.428978,43.6,0.00,157.6
24602.493,-1.8835,7.7604,5.6378,0.0000,0.0000,0.0000,40.077666,116.428978,43.6,0.00,157.6
24602.503,-1.9481,7.7197,5.6689,0.0000,0.0000,0.0000,40.077666,116.428978,43.6,0.00,157.6
24602.513,-1.9338,7.7197,5.6713,0.0000,0.0000,0.0000,40.077666,116.428978,43.6,0.00,157.6
24602.523,-1.9146,7.6934,5.6426,0.0000,0.0000,0.0000,40.077666,116.428978,43.6,0.00,157.6
24602.533,-1.9194,7.7293,5.7718,0.0000,0.0000,0.0000,40.077666,116.428978,43.6,0.00,157.6
24602.542,-1.9314,7.7173,5.7431,0.0000,0.0000,0.0000,40.077666,116.428978,43.6,0.00,157.6
24602.552,-1.9625,7.7485,5.6880,0.0000,0.0000,0.0000,40.077666,116.428978,43.6,0.00,157.6
24602.563,-2.0008,7.8155,5.7024,0.0000,0.0000,0.0000,40.077666,116.428978,43.6,0.00,157.6
24602.573,-1.9027,7.8250,5.6809,0.0000,0.0000,0.0000,40.077666,116.428978,43.6,0.00,157.6
24602.583,-1.9242,7.7485,5.6521,0.0000,0.0000,0.0000,40.077666,116.428978,43.6,0.00,157.6
24602.593,-1.9912,7.7293,5.7024,0.0000,0.0000,0.0000,40.077666,116.428978,43.6,0.00,157.6
24602.603,-1.9529,7.7796,5.6617,0.0000,0.0000,0.0000,40.077666,116.428978,43.6,0.00,157.6
24602.614,-1.8979,7.6958,5.7838,0.0000,0.0000,0.0000,40.077666,116.428978,43.6,0.00,157.6
24602.624,-1.9075,7.7317,5.7670,0.0000,0.0000,0.0000,40.077666,116.428978,43.6,0.00,157.6
24602.636,-1.8931,7.7748,5.7646,0.0000,0.0000,0.0000,40.077666,116.428978,43.6,0.00,157.6
24602.644,-1.8859,7.7437,5.8292,0.0000,0.0000,0.0000,40.077666,116.428978,43.6,0.00,157.6
24602.653,-1.8907,7.7556,5.7694,0.0000,0.0000,0.0000,40.077666,116.428978,43.6,0.00,157.6
24602.664,-1.9075,7.7891,5.8508,0.0000,0.0000,0.0000,40.077666,116.428978,43.6,0.00,157.6
24602.674,-1.8955,7.7437,5.7885,0.0000,0.0000,0.0000,40.077666,116.428978,43.6,0.00,157.6
24602.684,-1.9386,7.7317,5.7096,0.0000,0.0000,0.0000,40.077666,116.428978,43.6,0.00,157.6
24602.694,-1.8596,7.7580,5.6282,0.0000,0.0000,0.0000,40.077666,116.428978,43.6,0.00,157.6
24602.704,-1.9290,7.7365,5.5995,0.0000,0.0000,0.0000,40.077666,116.428978,43.6,0.00,157.6
24602.714,-1.8955,7.7461,5.6091,0.0000,0.0000,0.0000,40.077666,116.428978,43.6,0.00,157.6
24602.724,-1.9099,7.7461,5.5684,0.0000,0.0000,0.0000,40.077666,116.428978,43.6,0.00,157.6
24602.734,-1.9362,7.7126,5.6521,0.0000,0.0000,0.0000,40.077666,116.428978,43.6,0.00,157.6
24602.744,-1.8740,7.7867,5.6545,0.0000,0.0000,0.0000,40.077666,116.428978,43.6,0.00,157.6
24602.754,-1.8692,7.7915,5.7862,0.0000,0.0000,0.0000,40.077666,116.428978,43.6,0.00,157.6
24602.764,-1.8859,7.7652,5.8747,0.0000,0.0000,0.0000,40.077666,116.428978,43.6,0.00,157.6
24602.773,-1.8405,7.7915,5.8436,0.0000,0.0000,0.0000,40.077666,116.428978,43.6,0.00,157.6
24602.784,-1.7854,7.8011,5.8340,0.0000,0.0000,0.0000,40.077666,116.428978,43.6,0.00,157.6
24602.796,-1.9027,7.7915,5.7742,0.0000,0.0000,0.0000,40.077666,116.428978,43.6,0.00,157.6
24602.804,-1.9481,7.8346,5.7550,0.0000,0.0000,0.0000,40.077666,116.428978,43.6,0.00,157.6
24602.814,-1.9529,7.7796,5.7215,0.0000,0.0000,0.0000,40.077666,116.428978,43.6,0.00,157.6
24602.824,-1.8405,7.7676,5.6282,0.0000,0.0000,0.0000,40.077666,116.428978,43.6,0.00,157.6
24602.835,-1.8811,7.7891,5.7359,0.0000,0.0000,0.0000,40.077666,116.428978,43.6,0.00,157.6
24602.845,-1.9003,7.7437,5.6641,0.0000,0.0000,0.0000,40.077666,116.428978,43.6,0.00,157.6
24602.855,-1.9338,7.7413,5.7455,0.0000,0.0000,0.0000,40.077666,116.428978,43.6,0.00,157.6
24602.865,-1.8787,7.6958,5.6856,0.0000,0.0000,0.0000,40.077666,116.428978,43.6,0.00,157.6
24602.874,-1.8955,7.7556,5.7359,0.0000,0.0000,0.0000,40.077666,116.428978,43.6,0.00,157.6
24602.885,-1.9003,7.7389,5.7168,0.0000,0.0000,0.0000,40.077666,116.428978,43.6,0.00,157.6
24602.895,-1.8620,7.7939,5.7670,0.0000,0.0000,0.0000,40.077666,116.428978,43.6,0.00,157.6
24602.905,-1.8692,7.7485,5.7838,0.0000,0.0000,0.0000,40.077666,116.428978,43.6,0.00,157.6
24602.915,-1.8500,7.7748,5.8173,0.0000,0.0000,0.0000,40.077666,116.428978,43.6,0.00,157.6
24602.925,-1.8931,7.7843,5.8532,0.0000,0.0000,0.0000,40.077666,116.428978,43.6,0.00,157.6
24602.935,-1.9218,7.7867,5.8101,0.0000,0.0000,0.0000,40.077666,116.428978,43.6,0.00,157.6
24602.945,-1.9242,7.7580,5.7263,0.0000,0.0000,0.0000,40.077666,116.428978,43.6,0.00,157.6
24602.957,-1.8381,7.7796,5.7335,0.0000,0.0000,0.0000,40.077666,116.428978,43.6,0.00,157.6
24602.965,-1.8764,7.7700,5.7024,0.0000,0.0000,0.0000,40.077666,116.428978,43.6,0.00,157.6
24602.975,-1.8835,7.7365,5.6761,0.0000,0.0000,0.0000,40.077666,116.428978,43.6,0.00,157.6
24602.985,-1.8596,7.7245,5.7215,0.0000,0.0000,0.0000,40.077666,116.428978,43.6,0.00,157.6
24602.995,-1.8644,7.7317,5.7909,0.0000,0.0000,0.0000,40.077666,116.428978,43.6,0.00,157.6
24603.005,-1.8381,7.6934,5.8173,0.0000,0.0000,0.0000,40.077666,116.428978,43.6,0.00,157.6
24603.015,-1.8333,7.7796,5.8029,0.0000,0.0000,0.0000,40.077666,116.428978,43.6,0.00,157.6
24603.025,-1.8381,7.8107,5.8579,0.0000,0.0000,0.0000,40.077666,116.428978,43.6,0.00,157.6
24603.034,-1.8452,7.7197,5.8053,0.0000,0.0000,0.0000,40.077666,116.428978,43.6,0.00,157.6
24603.045,-1.9170,7.7269,5.7431,0.0000,0.0000,0.0000,40.077666,116.428978,43.6,0.00,157.6
24603.055,-1.8596,7.7030,5.7598,0.0000,0.0000,0.0000,40.077666,116.428978,43.6,0.00,157.6
24603.065,-1.8117,7.7748,5.7862,0.0000,0.0000,0.0000,40.077666,116.428978,43.6,0.00,157.6
24603.075,-1.7902,7.7461,5.7383,0.0000,0.0000,0.0000,40.077666,116.428978,43.6,0.00,157.6
24603.085,-1.8883,7.7987,5.8125,0.0000,0.0000,0.0000,40.077666,116.428978,43.6,0.00,157.6
24603.095,-1.9266,7.7365,5.7550,0.0000,0.0000,0.0000,40.077666,116.428978,43.6,0.00,157.6
24603.105,-1.8716,7.7748,5.6785,0.0000,0.0000,0.0000,40.077666,116.428978,43.6,0.00,157.6
24603.117,-1.8835,7.7724,5.6163,0.0000,0.0000,0.0000,40.077666,116.428978,43.6,0.00,157.6
24603.125,-1.8835,7.7939,5.6928,0.0000,0.0000,0.0000,40.077666,116.428978,43.6,0.00,157.6
24603.135,-1.8716,7.7724,5.6880,0.0000,0.0000,0.0000,40.077666,116.428978,43.6,0.00,157.6
24603.145,-1.8620,7.7126,5.8077,0.0000,0.0000,0.0000,40.077666,116.428978,43.6,0.00,157.6
24603.155,-1.7591,7.7221,5.8986,0.0000,0.0000,0.0000,40.077666,116.428978,43.6,0.00,157.6
24603.166,-1.8213,7.7078,5.8388,0.0000,0.0000,0.0000,40.077666,116.428978,43.6,0.00,157.6
24603.176,-1.8022,7.6862,5.7311,0.0000,0.0000,0.0000,40.077666,116.428978,43.6,0.00,157.6
24603.186,-1.7471,7.7772,5.7885,0.0000,0.0000,0.0000,40.077666,116.428978,43.6,0.00,157.6
24603.196,-1.8070,7.7078,5.7622,0.0000,0.0000,0.0000,40.077666,116.428978,43.6,0.00,157.6
24603.205,-1.8811,7.7341,5.7694,0.0000,0.0000,0.0000,40.077666,116.428978,43.6,0.00,157.6
24603.216,-1.8548,7.7843,5.8077,0.0000,0.0000,0.0000,40.077666,116.428978,43.6,0.00,157.6
24603.226,-1.8237,7.7413,5.7742,0.0000,0.0000,0.0000,40.077666,116.428978,43.6,0.00,157.6
24603.236,-1.8716,7.7628,5.7718,0.0000,0.0000,0.0000,40.077666,116.428978,43.6,0.00,157.6
24603.246,-1.9242,7.7796,5.7192,0.0000,0.0000,0.0000,40.077666,116.428978,43.6,0.00,157.6
24603.256,-1.8476,7.7939,5.8292,0.0000,0.0000,0.0000,40.077666,116.428978,43.6,0.00,157.6
24603.266,-1.9386,7.7987,5.8005,0.0000,0.0000,0.0000,40.077666,116.428978,43.6,0.00,157.6
24603.278,-1.8333,7.7700,5.7527,0.0000,0.0000,0.0000,40.077666,116.428978,43.6,0.00,157.6
24603.286,-1.8070,7.8155,5.8675,0.0000,0.0000,0.0000,40.077666,116.428978,43.6,0.00,157.6
24603.296,-1.7854,7.7580,5.8221,0.0000,0.0000,0.0000,40.077666,116.428978,43.6,0.00,157.6
24603.306,-1.7376,7.8274,5.8412,0.0000,0.0000,0.0000,40.077666,116.428978,43.6,0.00,157.6
24603.316,-1.8405,7.6886,5.8268,0.0000,0.0000,0.0000,40.077666,116.428978,43.6,0.00,157.6
24603.326,-1.8764,7.7197,5.7957,0.0000,0.0000,0.0000,40.077666,116.428978,43.6,0.00,157.6
24603.335,-1.8835,7.7197,5.7622,0.0000,0.0000,0.0000,40.077666,116.428978,43.6,0.00,157.6
24603.346,-1.8859,7.6886,5.6641,0.0000,0.0000,0.0000,40.077666,116.428978,43.6,0.00,157.6
24603.356,-1.8237,7.7652,5.8723,0.0000,0.0000,0.0000,40.077666,116.428978,43.6,0.00,157.6
24603.366,-1.8548,7.7150,5.8556,0.0000,0.0000,0.0000,40.077666,116.428978,43.6,0.00,157.6
24603.376,-1.8381,7.7317,5.7766,0.0000,0.0000,0.0000,40.077666,116.428978,43.6,0.00,157.6
24603.387,-1.8285,7.8083,5.7670,0.0000,0.0000,0.0000,40.077666,116.428978,43.6,0.00,157.6
24603.397,-1.8644,7.7820,5.7503,0.0000,0.0000,0.0000,40.077666,116.428978,43.6,0.00,157.6
24603.407,-1.8309,7.8250,5.6737,0.0000,0.0000,0.0000,40.077666,116.428978,43.6,0.00,157.6
24603.418,-1.8046,7.7843,5.6282,0.0000,0.0000,0.0000,40.077666,116.428978,43.6,0.00,157.6
24603.427,-1.7567,7.7748,5.6234,0.0000,0.0000,0.0000,40.077666,116.428978,43.6,0.00,157.6
24603.439,-1.7782,7.7700,5.7742,0.0000,0.0000,0.0000,40.077666,116.428978,43.6,0.00,157.6
24603.447,-1.7974,7.7413,5.6976,0.0000,0.0000,0.0000,40.077666,116.428978,43.6,0.00,157.6
24603.465,-1.8931,7.7820,5.7096,0.0000,0.0000,0.0000,40.077666,116.428978,43.6,0.00,157.6
24603.467,-1.8668,7.7461,5.7957,0.0000,0.0000,0.0000,40.077666,116.428978,43.6,0.00,157.6
24603.483,-1.9146,7.7556,5.8173,0.0000,0.0000,0.0000,40.077666,116.428978,43.6,0.00,157.6
24603.487,-1.9146,7.7150,5.7383,0.0000,0.0000,0.0000,40.077666,116.428978,43.6,0.00,157.6
24603.497,-1.9170,7.7269,5.7407,0.0000,0.0000,0.0000,40.077666,116.428978,43.6,0.00,157.6
24603.506,-1.9218,7.7748,5.8029,0.0000,0.0000,0.0000,40.077666,116.428978,43.6,0.00,157.6
24603.517,-1.9075,7.7604,5.8173,0.0000,0.0000,0.0000,40.077666,116.428978,43.6,0.00,157.6
24603.527,-1.9075,7.7867,5.8149,0.0000,0.0000,0.0000,40.077666,116.428978,43.6,0.00,157.6
24603.537,-1.8787,7.7532,5.7718,0.0000,0.0000,0.0000,40.077666,116.428978,43.6,0.00,157.6
24603.547,-1.9051,7.7963,5.7215,0.0000,0.0000,0.0000,40.077666,116.428978,43.6,0.00,157.6
24603.558,-1.8692,7.7341,5.6378,0.0000,0.0000,0.0000,40.077666,116.428978,43.6,0.00,157.6
24603.567,-1.7974,7.8107,5.6402,0.0000,0.0000,0.0000,40.077666,116.428978,43.6,0.00,157.6
24603.577,-1.7878,7.8178,5.5588,0.0000,0.0000,0.0000,40.077666,116.428978,43.6,0.00,157.6
24603.587,-1.7998,7.8274,5.6163,0.0000,0.0000,0.0000,40.077666,116.428978,43.6,0.00,157.6
24603.600,-1.8811,7.7915,5.6952,0.0000,0.0000,0.0000,40.077666,116.428978,43.6,0.00,157.6
24603.607,-1.9075,7.8155,5.6809,0.0000,0.0000,0.0000,40.077666,116.428978,43.6,0.00,157.6
24603.617,-1.7854,7.8059,5.7215,0.0000,0.0000,0.0000,40.077666,116.428978,43.6,0.00,157.6
24603.626,-1.8548,7.7628,5.6880,0.0000,0.0000,0.0000,40.077666,116.428978,43.6,0.00,157.6
24603.637,-1.8859,7.7748,5.7670,0.0000,0.0000,0.0000,40.077666,116.428978,43.6,0.00,157.6
24603.647,-1.8931,7.7891,5.6856,0.0000,0.0000,0.0000,40.077666,116.428978,43.6,0.00,157.6
24603.657,-1.8094,7.7293,5.7335,0.0000,0.0000,0.0000,40.077666,116.428978,43.6,0.00,157.6
24603.667,-1.8476,7.7556,5.7479,0.0000,0.0000,0.0000,40.077666,116.428978,43.6,0.00,157.6
24603.677,-1.8524,7.7700,5.7838,0.0000,0.0000,0.0000,40.077666,116.428978,43.6,0.00,157.6
24603.687,-1.8333,7.8490,5.7335,0.0000,0.0000,0.0000,40.077666,116.428978,43.6,0.00,157.6
24603.697,-1.7639,7.7915,5.7263,0.0000,0.0000,0.0000,40.077666,116.428978,43.6,0.00,157.6
24603.707,-1.7687,7.7939,5.6139,0.0000,0.0000,0.0000,40.077666,116.428978,43.6,0.00,157.6
24603.718,-1.8716,7.8250,5.6186,0.0000,0.0000,0.0000,40.077666,116.428978,43.6,0.00,157.6
24603.728,-1.8381,7.8226,5.4822,0.0000,0.0000,0.0000,40.077666,116.428978,43.6,0.00,157.6
24603.737,-1.8500,7.7652,5.4224,0.0000,0.0000,0.0000,40.077666,116.428978,43.6,0.00,157.6
24603.748,-1.8405,7.7556,5.4918,0.0000,0.0000,0.0000,40.077666,116.428978,43.6,0.00,157.6
24603.759,-1.8596,7.8035,5.5636,0.0000,0.0000,0.0000,40.077666,116.428978,43.6,0.00,157.6
24603.768,-1.8668,7.7604,5.7383,0.0000,0.0000,0.0000,40.077666,116.428978,43.6,0.00,157.6
24603.778,-1.8405,7.7556,5.7718,0.0000,0.0000,0.0000,40.077666,116.428978,43.6,0.00,157.6
24603.787,-1.8979,7.7939,5.7383,0.0000,0.0000,0.0000,40.077666,116.428978,43.6,0.00,157.6
24603.797,-1.8787,7.7748,5.8819,0.0000,0.0000,0.0000,40.077666,116.428978,43.6,0.00,157.6
24603.808,-1.7854,7.7843,5.8244,0.0000,0.0000,0.0000,40.077666,116.428978,43.6,0.00,157.6
24603.818,-1.8668,7.7700,5.7574,0.0000,0.0000,0.0000,40.077666,116.428978,43.6,0.00,157.6
24603.827,-1.8572,7.8035,5.7933,0.0000,0.0000,0.0000,40.077666,116.428978,43.6,0.00,157.6
24603.838,-1.8524,7.8322,5.6569,0.0000,0.0000,0.0000,40.077666,116.428978,43.6,0.00,157.6
24603.848,-1.8357,7.8322,5.6545,0.0000,0.0000,0.0000,40.077666,116.428978,43.6,0.00,157.6
24603.858,-1.8716,7.7891,5.6617,0.0000,0.0000,0.0000,40.077666,116.428978,43.6,0.00,157.6
24603.867,-1.8213,7.7820,5.7455,0.0000,0.0000,0.0000,40.077666,116.428978,43.6,0.00,157.6
24603.878,-1.8452,7.8250,5.6163,0.0000,0.0000,0.0000,40.077666,116.428978,43.6,0.00,157.6
24603.888,-1.8476,7.7604,5.7909,0.0000,0.0000,0.0000,40.077666,116.428978,43.6,0.00,157.6
24603.898,-1.8620,7.7963,5.7359,0.0000,0.0000,0.0000,40.077666,116.428978,43.6,0.00,157.6
24603.908,-1.8309,7.7485,5.6880,0.0000,0.0000,0.0000,40.077666,116.428978,43.6,0.00,157.6
24603.920,-1.7806,7.8202,5.7479,0.0000,0.0000,0.0000,40.077666,116.428978,43.6,0.00,157.6
24603.928,-1.8620,7.7963,5.7144,0.0000,0.0000,0.0000,40.077666,116.428978,43.6,0.00,157.6
24603.939,-1.8429,7.7700,5.6880,0.0000,0.0000,0.0000,40.077666,116.428978,43.6,0.00,157.6
24603.949,-1.8165,7.7867,5.5612,0.0000,0.0000,0.0000,40.077666,116.428978,43.6,0.00,157.6
24603.959,-1.8716,7.7676,5.7479,0.0000,0.0000,0.0000,40.077666,116.428978,43.6,0.00,157.6
24603.969,-1.8117,7.8178,5.7359,0.0000,0.0000,0.0000,40.077666,116.428978,43.6,0.00,157.6
24603.978,-1.8476,7.8466,5.8484,0.0000,0.0000,0.0000,40.077666,116.428978,43.6,0.00,157.6
24603.989,-1.8859,7.7485,5.6880,0.0000,0.0000,0.0000,40.077666,116.428978,43.6,0.00,157.6
24603.999,-1.8979,7.7580,5.6115,0.0000,0.0000,0.0000,40.077666,116.428978,43.6,0.00,157.6
24604.009,-1.8859,7.7317,5.5947,0.0000,0.0000,0.0000,40.077666,116.428978,43.6,0.00,157.6
24604.019,-1.8811,7.7891,5.5516,0.0000,0.0000,0.0000,40.077666,116.428978,43.6,0.00,157.6
24604.029,-1.8668,7.7867,5.6163,0.0000,0.0000,0.0000,40.077666,116.428978,43.6,0.00,157.6
24604.039,-1.8548,7.7485,5.7287,0.0000,0.0000,0.0000,40.077666,116.428978,43.6,0.00,157.6
24604.049,-1.9625,7.7437,5.7694,0.0000,0.0000,0.0000,40.077666,116.428978,43.6,0.00,157.6
24604.058,-1.8764,7.7485,5.8173,0.0000,0.0000,0.0000,40.077666,116.428978,43.6,0.00,157.6
24604.069,-1.8357,7.7556,5.8579,0.0000,0.0000,0.0000,40.077666,116.428978,43.6,0.00,157.6
24604.081,-1.8931,7.7700,5.8364,0.0000,0.0000,0.0000,40.077666,116.428978,43.6,0.00,157.6
24604.089,-1.9218,7.7508,5.7790,0.0000,0.0000,0.0000,40.077666,116.428978,43.6,0.00,157.6
24604.099,-1.8500,7.7485,5.7694,0.0000,0.0000,0.0000,40.077666,116.428978,43.6,0.00,157.6
24604.109,-1.8883,7.7293,5.7144,0.0000,0.0000,0.0000,40.077666,116.428978,43.6,0.00,157.6
24604.119,-1.8955,7.7173,5.7383,0.0000,0.0000,0.0000,40.077666,116.428978,43.6,0.00,157.6
24604.129,-1.8189,7.8035,5.7455,0.0000,0.0000,0.0000,40.077666,116.428978,43.6,0.00,157.6
24604.139,-1.9170,7.7413,5.6856,0.0000,0.0000,0.0000,40.077666,116.428978,43.6,0.00,157.6
24604.149,-1.9051,7.8131,5.7479,0.0000,0.0000,0.0000,40.077666,116.428978,43.6,0.00,157.6
24604.159,-1.9314,7.8226,5.7144,0.0000,0.0000,0.0000,40.077666,116.428978,43.6,0.00,157.6
24604.169,-1.8955,7.7724,5.6952,0.0000,0.0000,0.0000,40.077666,116.428978,43.6,0.00,157.6
24604.179,-1.9027,7.7580,5.7431,0.0000,0.0000,0.0000,40.077666,116.428978,43.6,0.00,157.6
24604.189,-1.8572,7.7532,5.8603,0.0000,0.0000,0.0000,40.077666,116.428978,43.6,0.00,157.6
24604.198,-1.8094,7.7485,5.8101,0.0000,0.0000,0.0000,40.077666,116.428978,43.6,0.00,157.6
24604.209,-1.8333,7.7891,5.7670,0.0000,0.0000,0.0000,40.077666,116.428978,43.6,0.00,157.6
24604.219,-1.8476,7.7269,5.7287,0.0000,0.0000,0.0000,40.077666,116.428978,43.6,0.00,157.6
24604.228,-1.7782,7.7556,5.6115,0.0000,0.0000,0.0000,40.077666,116.428978,43.6,0.00,157.6
24604.242,-1.8094,7.7365,5.6928,0.0000,0.0000,0.0000,40.077666,116.428978,43.6,0.00,157.6
24604.248,-1.9099,7.7508,5.7263,0.0000,0.0000,0.0000,40.077666,116.428978,43.6,0.00,157.6
24604.259,-1.8381,7.7748,5.7694,0.0000,0.0000,0.0000,40.077666,116.428978,43.6,0.00,157.6
24604.270,-1.8740,7.7269,5.7766,0.0000,0.0000,0.0000,40.077666,116.428978,43.6,0.00,157.6
24604.280,-1.9170,7.7437,5.8029,0.0000,0.0000,0.0000,40.077666,116.428978,43.6,0.00,157.6
24604.289,-1.9458,7.7556,5.7814,0.0000,0.0000,0.0000,40.077666,116.428978,43.6,0.00,157.6
24604.300,-1.8907,7.7891,5.7455,0.0000,0.0000,0.0000,40.077666,116.428978,43.6,0.00,157.6
24604.309,-1.8620,7.7556,5.6880,0.0000,0.0000,0.0000,40.077666,116.428978,43.6,0.00,157.6
24604.320,-1.8189,7.7078,5.6737,0.0000,0.0000,0.0000,40.077666,116.428978,43.6,0.00,157.6
24604.330,-1.7950,7.6862,5.7455,0.0000,0.0000,0.0000,40.077666,116.428978,43.6,0.00,157.6
24604.340,-1.7687,7.7341,5.7455,0.0000,0.0000,0.0000,40.077666,116.428978,43.6,0.00,157.6
24604.350,-1.8261,7.7963,5.6737,0.0000,0.0000,0.0000,40.077666,116.428978,43.6,0.00,157.6
24604.359,-1.8740,7.7796,5.7766,0.0000,0.0000,0.0000,40.077666,116.428978,43.6,0.00,157.6
24604.370,-1.9601,7.6791,5.6856,0.0000,0.0000,0.0000,40.077666,116.428978,43.6,0.00,157.6
24604.380,-1.8787,7.6575,5.8747,0.0000,0.0000,0.0000,40.077666,116.428978,43.6,0.00,157.6
24604.390,-1.8261,7.7269,5.8699,0.0000,0.0000,0.0000,40.077666,116.428978,43.6,0.00,157.6
24604.403,-1.8309,7.8825,5.8627,0.0000,0.0000,0.0000,40.077666,116.428978,43.6,0.00,157.6
24604.410,-1.7543,7.8202,5.8149,0.0000,0.0000,0.0000,40.077666,116.428978,43.6,0.00,157.6
24604.420,-1.6610,7.8298,5.7527,0.0000,0.0000,0.0000,40.077666,116.428978,43.6,0.00,157.6
24604.430,-1.7065,7.7987,5.7168,0.0000,0.0000,0.0000,40.077666,116.428978,43.6,0.00,157.6
24604.439,-1.6418,7.7724,5.7814,0.0000,0.0000,0.0000,40.077666,116.428978,43.6,0.00,157.6
24604.450,-1.6801,7.7269,5.6856,0.0000,0.0000,0.0000,40.077666,116.428978,43.6,0.00,157.6
24604.466,-1.5389,7.7245,5.7885,0.0000,0.0000,0.0000,40.077666,116.428978,43.6,0.00,157.6
24604.478,-1.6083,7.6982,5.6665,0.0000,0.0000,0.0000,40.077666,116.428978,43.6,0.00,157.6
24604.480,-1.7232,7.6312,5.7311,0.0000,0.0000,0.0000,40.077666,116.428978,43.6,0.00,157.6
24604.490,-1.4504,7.6479,5.8077,0.0000,0.0000,0.0000,40.077666,116.428978,43.6,0.00,157.6
24604.500,-1.9242,7.5881,5.7766,0.0000,0.0000,0.0000,40.077666,116.428978,43.6,0.00,157.6
24604.510,-1.8094,7.6432,5.8508,0.0000,0.0000,0.0000,40.077666,116.428978,43.6,0.00,157.6
24604.520,-1.5294,7.6862,5.9967,0.0000,0.0000,0.0000,40.077666,116.428978,43.6,0.00,157.6
24604.530,-1.2996,7.6288,6.2935,0.0000,0.0000,0.0000,40.077666,116.428978,43.6,0.00,157.6
24604.540,-1.1656,7.5259,6.6093,0.0000,0.0000,0.0000,40.077666,116.428978,43.6,0.00,157.6
24604.550,-1.2279,7.3081,6.9946,0.0000,0.0000,0.0000,40.077666,116.428978,43.6,0.00,157.6
24604.563,-1.1609,7.0712,7.3823,0.0000,0.0000,0.0000,40.077666,116.428978,43.6,0.00,157.6
24604.570,-1.1824,6.6261,7.7053,0.0000,0.0000,0.0000,40.077666,116.428978,43.6,0.00,157.6
24604.580,-1.4504,6.4634,7.8322,0.0000,0.0000,0.0000,40.077666,116.428978,43.6,0.00,157.6
24604.590,-1.7567,6.9157,7.6336,0.0000,0.0000,0.0000,40.077666,116.428978,43.6,0.00,157.6
24604.601,-1.6418,7.2699,7.2985,0.0000,0.0000,0.0000,40.077666,116.428978,43.6,0.00,157.6
24604.611,-1.3236,7.4063,6.8582,0.0000,0.0000,0.0000,40.077666,116.428978,43.6,0.00,157.6
24604.621,-1.1585,7.1693,6.4275,0.0000,0.0000,0.0000,40.077666,116.428978,43.6,0.00,157.6
24604.631,-1.3092,7.0808,6.1475,0.0000,0.0000,0.0000,40.077666,116.428978,43.6,0.00,157.6
24604.641,-1.8333,7.0808,6.0159,0.0000,0.0000,0.0000,40.077666,116.428978,43.6,0.00,157.6
24604.651,-1.9242,7.0449,5.9489,0.0000,0.0000,0.0000,40.077666,116.428978,43.6,0.00,157.6
24604.661,-1.9553,7.0234,6.0518,0.0000,0.0000,0.0000,40.077666,116.428978,43.6,0.00,157.6
24604.671,-1.9242,7.1119,6.3509,0.0000,0.0000,0.0000,40.077666,116.428978,43.6,0.00,157.6
24604.681,-1.9697,7.2507,7.2100,0.0000,0.0000,0.0000,40.077666,116.428978,43.6,0.00,157.6
24604.691,-1.5509,6.4491,7.3608,0.0000,0.0000,0.0000,40.077666,116.428978,43.6,0.00,157.6
24604.701,-0.8952,6.3509,7.3249,0.0000,0.0000,0.0000,40.077666,116.428978,43.6,0.00,157.6
24604.711,-0.8857,6.7793,7.4613,0.0000,0.0000,0.0000,40.077666,116.428978,43.6,0.00,157.6
24604.724,-1.4767,7.1717,7.4182,0.0000,0.0000,0.0000,40.077666,116.428978,43.6,0.00,157.6
24604.731,-1.3810,7.4182,7.3608,0.0000,0.0000,0.0000,40.077666,116.428978,43.6,0.00,157.6
24604.741,-1.2422,7.3584,7.3153,0.0000,0.0000,0.0000,40.077666,116.428978,43.6,0.00,157.6
24604.751,-1.4983,7.1981,7.0808,0.0000,0.0000,0.0000,40.077666,116.428978,43.6,0.00,157.6
24604.760,-1.4959,7.2028,6.6716,0.0000,0.0000,0.0000,40.077666,116.428978,43.6,0.00,157.6
24604.771,-1.2709,7.2794,6.5926,0.0000,0.0000,0.0000,40.077666,116.428978,43.6,0.00,157.6
24604.780,-1.3355,7.3105,6.4466,0.0000,0.0000,0.0000,40.077666,116.428978,43.6,0.00,157.6
24604.791,-1.4313,7.3345,6.6022,0.0000,0.0000,0.0000,40.077666,116.428978,43.6,0.00,157.6
24604.801,-1.3212,7.1526,7.0329,0.0000,0.0000,0.0000,40.077666,116.428978,43.6,0.00,157.6
24604.810,-1.1010,7.0353,7.4230,0.0000,0.0000,0.0000,40.077666,116.428978,43.6,0.00,157.6
24604.822,-1.0053,7.2364,7.5115,0.0000,0.0000,0.0000,40.077666,116.428978,43.6,0.00,157.6
24604.832,-1.2829,7.3345,7.2507,0.0000,0.0000,0.0000,40.077666,116.428978,43.6,0.00,157.6
24604.841,-1.5030,7.3297,6.8774,0.0000,0.0000,0.0000,40.077666,116.428978,43.6,0.00,157.6
24604.851,-1.6371,7.3416,6.2863,0.0000,0.0000,0.0000,40.077666,116.428978,43.6,0.00,157.6
24604.861,-1.6825,7.3464,6.0614,0.0000,0.0000,0.0000,40.077666,116.428978,43.6,0.00,157.6
24604.872,-1.7017,7.3847,5.9967,0.0000,0.0000,0.0000,40.077666,116.428978,43.6,0.00,157.6
24604.883,-1.6227,7.4350,6.1571,0.0000,0.0000,0.0000,40.077666,116.428978,43.6,0.00,157.6
24604.892,-1.5389,7.4278,6.4634,0.0000,0.0000,0.0000,40.077666,116.428978,43.6,0.00,157.6
24604.902,-1.6251,7.3584,6.8295,0.0000,0.0000,0.0000,40.077666,116.428978,43.6,0.00,157.6
24604.913,-1.5533,7.3895,6.8319,0.0000,0.0000,0.0000,40.077666,116.428978,43.6,0.00,157.6
24604.921,-1.4887,7.3488,6.9133,0.0000,0.0000,0.0000,40.077666,116.428978,43.6,0.00,157.6
24604.932,-1.5007,7.4206,6.7099,0.0000,0.0000,0.0000,40.077666,116.428978,43.6,0.00,157.6
24604.942,-1.4408,7.2986,6.6787,0.0000,0.0000,0.0000,40.077666,116.428978,43.6,0.00,157.6
24604.952,-1.3786,7.2890,6.6548,0.0000,0.0000,0.0000,40.077666,116.428978,43.6,0.00,157.6
24604.962,-1.5653,7.4541,6.5615,0.0000,0.0000,0.0000,40.077666,116.428978,43.6,0.00,157.6
24604.971,-1.6849,7.5020,6.4777,0.0000,0.0000,0.0000,40.077666,116.428978,43.6,0.00,157.6
24604.982,-1.7495,7.4972,6.2624,0.0000,0.0000,0.0000,40.077666,116.428978,43.6,0.00,157.6
24604.992,-1.7830,7.4493,6.1307,0.0000,0.0000,0.0000,40.077666,116.428978,43.6,0.00,157.6
24605.002,-1.8141,7.4254,6.1188,0.0000,0.0000,0.0000,40.077666,116.428978,43.6,0.00,157.6
24605.012,-1.7854,7.4900,6.2169,0.0000,0.0000,0.0000,40.077666,116.428978,43.6,0.00,157.6
24605.022,-1.8476,7.4134,6.3557,0.0000,0.0000,0.0000,40.077666,116.428978,43.6,0.00,157.6
24605.032,-1.7615,7.3464,6.3916,0.0000,0.0000,0.0000,40.077666,116.428978,43.6,0.00,157.6
24605.045,-1.6873,7.3656,6.5806,0.0000,0.0000,0.0000,40.077666,116.428978,43.6,0.00,157.6
24605.051,-1.6299,7.3488,6.6787,0.0000,0.0000,0.0000,40.077666,116.428978,43.6,0.00,157.6
24605.061,-1.5461,7.3775,6.7386,0.0000,0.0000,0.0000,40.077666,116.428978,43.6,0.00,157.6
24605.072,-1.5078,7.3273,6.6740,0.0000,0.0000,0.0000,40.077666,116.428978,43.6,0.00,157.6
24605.082,-1.6347,7.3871,6.3916,0.0000,0.0000,0.0000,40.077666,116.428978,43.6,0.00,157.6
24605.092,-1.7543,7.4565,6.2217,0.0000,0.0000,0.0000,40.077666,116.428978,43.6,0.00,157.6
24605.102,-1.7926,7.4661,6.1188,0.0000,0.0000,0.0000,40.077666,116.428978,43.6,0.00,157.6
24605.111,-1.7447,7.4374,6.1571,0.0000,0.0000,0.0000,40.077666,116.428978,43.6,0.00,157.6
24605.122,-1.6825,7.3991,6.3557,0.0000,0.0000,0.0000,40.077666,116.428978,43.6,0.00,157.6
24605.133,-1.6801,7.4015,6.5088,0.0000,0.0000,0.0000,40.077666,116.428978,43.6,0.00,157.6
24605.142,-1.6179,7.3512,6.7553,0.0000,0.0000,0.0000,40.077666,116.428978,43.6,0.00,157.6
24605.153,-1.6945,7.4924,6.6548,0.0000,0.0000,0.0000,40.077666,116.428978,43.6,0.00,157.6
24605.162,-1.5772,7.3991,6.7601,0.0000,0.0000,0.0000,40.077666,116.428978,43.6,0.00,157.6
24605.173,-1.6873,7.4134,6.6716,0.0000,0.0000,0.0000,40.077666,116.428978,43.6,0.00,157.6
24605.183,-1.6323,7.3488,6.7673,0.0000,0.0000,0.0000,40.077666,116.428978,43.6,0.00,157.6
24605.192,-1.6514,7.2962,6.6189,0.0000,0.0000,0.0000,40.077666,116.428978,43.6,0.00,157.6
24605.205,-1.6179,7.3584,6.5711,0.0000,0.0000,0.0000,40.077666,116.428978,43.6,0.00,157.6
24605.213,-1.7280,7.4206,6.3772,0.0000,0.0000,0.0000,40.077666,116.428978,43.6,0.00,157.6
24605.223,-1.7376,7.4613,6.2648,0.0000,0.0000,0.0000,40.077666,116.428978,43.6,0.00,157.6
24605.233,-1.7088,7.3943,6.2241,0.0000,0.0000,0.0000,40.077666,116.428978,43.6,0.00,157.6
24605.243,-1.6107,7.3823,6.2097,0.0000,0.0000,0.0000,40.077666,116.428978,43.6,0.00,157.6
24605.252,-1.5150,7.3847,6.2863,0.0000,0.0000,0.0000,40.077666,116.428978,43.6,0.00,157.6
24605.263,-1.5366,7.3943,6.3916,0.0000,0.0000,0.0000,40.077666,116.428978,43.6,0.00,157.6
24605.272,-1.5294,7.3177,6.5017,0.0000,0.0000,0.0000,40.077666,116.428978,43.6,0.00,157.6
24605.283,-1.6371,7.3775,6.3868,0.0000,0.0000,0.0000,40.077666,116.428978,43.6,0.00,157.6
24605.293,-1.6514,7.3775,6.3150,0.0000,0.0000,0.0000,40.077666,116.428978,43.6,0.00,157.6
24605.303,-1.6538,7.3273,6.4155,0.0000,0.0000,0.0000,40.077666,116.428978,43.6,0.00,157.6
24605.313,-1.6873,7.3991,6.4801,0.0000,0.0000,0.0000,40.077666,116.428978,43.6,0.00,157.6
24605.322,-1.6753,7.3991,6.5567,0.0000,0.0000,0.0000,40.077666,116.428978,43.6,0.00,157.6
24605.332,-1.6131,7.4565,6.5758,0.0000,0.0000,0.0000,40.077666,116.428978,43.6,0.00,157.6
24605.343,-1.5342,7.3871,6.7745,0.0000,0.0000,0.0000,40.077666,116.428978,43.6,0.00,157.6
24605.352,-1.5629,7.2890,6.6381,0.0000,0.0000,0.0000,40.077666,116.428978,43.6,0.00,157.6
24605.366,-1.4959,7.2962,6.6668,0.0000,0.0000,0.0000,40.077666,116.428978,43.6,0.00,157.6
24605.374,-1.5342,7.4134,6.6213,0.0000,0.0000,0.0000,40.077666,116.428978,43.6,0.00,157.6
24605.384,-1.5102,7.4804,6.5998,0.0000,0.0000,0.0000,40.077666,116.428978,43.6,0.00,157.6
24605.394,-1.5222,7.4302,6.5711,0.0000,0.0000,0.0000,40.077666,116.428978,43.6,0.00,157.6
24605.404,-1.4624,7.3464,6.7075,0.0000,0.0000,0.0000,40.077666,116.428978,43.6,0.00,157.6
24605.414,-1.3666,7.3297,6.6883,0.0000,0.0000,0.0000,40.077666,116.428978,43.6,0.00,157.6
24605.424,-1.3403,7.2627,6.7146,0.0000,0.0000,0.0000,40.077666,116.428978,43.6,0.00,157.6
24605.434,-1.2757,7.2986,6.7625,0.0000,0.0000,0.0000,40.077666,116.428978,43.6,0.00,157.6
24605.444,-1.2757,7.2914,6.7505,0.0000,0.0000,0.0000,40.077666,116.428978,43.6,0.00,157.6
24605.454,-1.3260,7.2914,6.7266,0.0000,0.0000,0.0000,40.077666,116.428978,43.6,0.00,157.6
24605.472,-1.4432,7.3895,6.6620,0.0000,0.0000,0.0000,40.077666,116.428978,43.6,0.00,157.6
24605.487,-1.3020,7.3895,6.4514,0.0000,0.0000,0.0000,40.077666,116.428978,43.6,0.00,157.6
24605.488,-1.4121,7.2938,6.4227,0.0000,0.0000,0.0000,40.077666,116.428978,43.6,0.00,157.6
24605.494,-1.4624,7.3943,6.4777,0.0000,0.0000,0.0000,40.077666,116.428978,43.6,0.00,157.6
24605.504,-1.3379,7.4565,6.7290,0.0000,0.0000,0.0000,40.077666,116.428978,43.6,0.00,157.6
24605.514,-1.3666,7.3153,6.8128,0.0000,0.0000,0.0000,40.077666,116.428978,43.6,0.00,157.6
24605.525,-1.3020,7.2962,6.8798,0.0000,0.0000,0.0000,40.077666,116.428978,43.6,0.00,157.6
24605.533,-1.5030,7.2842,6.8128,0.0000,0.0000,0.0000,40.077666,116.428978,43.6,0.00,157.6
24605.544,-1.4624,7.2938,6.7362,0.0000,0.0000,0.0000,40.077666,116.428978,43.6,0.00,157.6
24605.554,-1.3427,7.3560,6.6070,0.0000,0.0000,0.0000,40.077666,116.428978,43.6,0.00,157.6
24605.564,-1.4121,7.2770,6.4921,0.0000,0.0000,0.0000,40.077666,116.428978,43.6,0.00,157.6
24605.574,-1.4600,7.3129,6.4586,0.0000,0.0000,0.0000,40.077666,116.428978,43.6,0.00,157.6
24605.583,-1.4504,7.3392,6.7218,0.0000,0.0000,0.0000,40.077666,116.428978,43.6,0.00,157.6
24605.594,-1.4169,7.3225,6.8223,0.0000,0.0000,0.0000,40.077666,116.428978,43.6,0.00,157.6
24605.604,-1.4265,7.3799,6.7601,0.0000,0.0000,0.0000,40.077666,116.428978,43.6,0.00,157.6
24605.614,-1.3595,7.4398,6.6620,0.0000,0.0000,0.0000,40.077666,116.428978,43.6,0.00,157.6
24605.624,-1.3643,7.3321,6.6189,0.0000,0.0000,0.0000,40.077666,116.428978,43.6,0.00,157.6
24605.634,-1.3068,7.2746,6.6046,0.0000,0.0000,0.0000,40.077666,116.428978,43.6,0.00,157.6
24605.643,-1.2781,7.2005,6.7314,0.0000,0.0000,0.0000,40.077666,116.428978,43.6,0.00,157.6
24605.654,-1.2566,7.2579,6.6787,0.0000,0.0000,0.0000,40.077666,116.428978,43.6,0.00,157.6
24605.664,-1.3236,7.3632,6.7051,0.0000,0.0000,0.0000,40.077666,116.428978,43.6,0.00,157.6
24605.673,-1.2901,7.3512,6.8032,0.0000,0.0000,0.0000,40.077666,116.428978,43.6,0.00,157.6
24605.687,-1.4241,7.3775,6.6237,0.0000,0.0000,0.0000,40.077666,116.428978,43.6,0.00,157.6
24605.694,-1.1967,7.2459,6.6213,0.0000,0.0000,0.0000,40.077666,116.428978,43.6,0.00,157.6
24605.705,-1.2709,7.2220,6.7769,0.0000,0.0000,0.0000,40.077666,116.428978,43.6,0.00,157.6
24605.715,-1.3092,7.2244,6.7793,0.0000,0.0000,0.0000,40.077666,116.428978,43.6,0.00,157.6
24605.724,-1.2111,7.2364,6.7122,0.0000,0.0000,0.0000,40.077666,116.428978,43.6,0.00,157.6
24605.735,-1.2685,7.0664,6.8080,0.0000,0.0000,0.0000,40.077666,116.428978,43.6,0.00,157.6
24605.745,-1.5485,7.3153,6.9898,0.0000,0.0000,0.0000,40.077666,116.428978,43.6,0.00,157.6
24605.754,-1.3260,7.4230,7.2363,0.0000,0.0000,0.0000,40.077666,116.428978,43.6,0.00,157.6
24605.764,-1.3116,7.3584,7.2363,0.0000,0.0000,0.0000,40.077666,116.428978,43.6,0.00,157.6
24605.774,-1.3643,7.3656,6.6692,0.0000,0.0000,0.0000,40.077666,116.428978,43.6,0.00,157.6
24605.784,-1.3571,7.5498,5.9752,0.0000,0.0000,0.0000,40.077666,116.428978,43.6,0.00,157.6
24605.795,-1.6514,7.5714,5.8101,0.0000,0.0000,0.0000,40.077666,116.428978,43.6,0.00,157.6
24605.804,-1.7615,7.4493,5.6210,0.0000,0.0000,0.0000,40.077666,116.428978,43.6,0.00,157.6
24605.814,-1.6849,7.4733,5.7407,0.0000,0.0000,0.0000,40.077666,116.428978,43.6,0.00,157.6
24605.825,-1.2901,7.4828,6.0901,0.0000,0.0000,0.0000,40.077666,116.428978,43.6,0.00,157.6
24605.834,-1.0364,7.4780,6.5878,0.0000,0.0000,0.0000,40.077666,116.428978,43.6,0.00,157.6
24605.848,-1.0603,7.4469,6.8319,0.0000,0.0000,0.0000,40.077666,116.428978,43.6,0.00,157.6
24605.855,-1.0771,7.2866,6.9994,0.0000,0.0000,0.0000,40.077666,116.428978,43.6,0.00,157.6
24605.865,-1.0675,7.3488,7.0903,0.0000,0.0000,0.0000,40.077666,116.428978,43.6,0.00,157.6
24605.875,-1.5533,7.6121,7.3464,0.0000,0.0000,0.0000,40.077666,116.428978,43.6,0.00,157.6
24605.884,-1.0508,7.4374,7.4876,0.0000,0.0000,0.0000,40.077666,116.428978,43.6,0.00,157.6
24605.894,-0.9144,7.2962,7.4780,0.0000,0.0000,0.0000,40.077666,116.428978,43.6,0.00,157.6
24605.906,-0.9455,7.1287,7.3464,0.0000,0.0000,0.0000,40.077666,116.428978,43.6,0.00,157.6
24605.925,-1.0508,7.1215,7.2435,0.0000,0.0000,0.0000,40.077666,116.428978,43.6,0.00,157.6
24605.937,-1.4241,7.2316,7.0257,0.0000,0.0000,0.0000,40.077666,116.428978,43.6,0.00,157.6
24605.937,-1.3619,7.3632,7.0066,0.0000,0.0000,0.0000,40.077666,116.428978,43.6,0.00,157.6
24605.945,-1.4480,7.3392,6.7481,0.0000,0.0000,0.0000,40.077666,116.428978,43.6,0.00,157.6
24605.969,-1.4073,7.3536,6.5854,0.0000,0.0000,0.0000,40.077666,116.428978,43.6,0.00,157.6
24605.969,-1.5533,7.3728,6.2552,0.0000,0.0000,0.0000,40.077666,116.428978,43.6,0.00,157.6
24605.976,-1.5844,7.5594,6.1068,0.0000,0.0000,0.0000,40.077666,116.428978,43.6,0.00,157.6
24605.988,-1.6227,7.5546,6.1260,0.0000,0.0000,0.0000,40.077666,116.428978,43.6,0.00,157.6
24605.996,-1.5724,7.5666,6.1164,0.0000,0.0000,0.0000,40.077666,116.428978,43.6,0.00,157.6
24606.007,-1.5437,7.5115,6.1140,0.0000,0.0000,0.0000,40.077666,116.428978,43.6,0.00,157.6
24606.016,-1.5748,7.4757,6.0302,0.0000,0.0000,0.0000,40.077666,116.428978,43.6,0.00,157.6
24606.026,-1.6849,7.5953,5.9632,0.0000,0.0000,0.0000,40.077666,116.428978,43.6,0.00,157.6
24606.036,-1.6777,7.5785,6.0159,0.0000,0.0000,0.0000,40.077666,116.428978,43.6,0.00,157.6
24606.063,-1.6897,7.5403,6.0829,0.0000,0.0000,0.0000,40.077666,116.428978,43.6,0.00,157.6
24606.063,-1.6921,7.5403,6.3007,0.0000,0.0000,0.0000,40.077666,116.428978,43.6,0.00,157.6
24606.068,-1.5437,7.5307,6.6357,0.0000,0.0000,0.0000,40.077666,116.428978,43.6,0.00,157.6
24606.076,-1.5342,7.5068,6.6787,0.0000,0.0000,0.0000,40.077666,116.428978,43.6,0.00,157.6
24606.085,-1.5605,7.5044,6.6309,0.0000,0.0000,0.0000,40.077666,116.428978,43.6,0.00,157.6
24606.107,-1.6347,7.5163,6.4729,0.0000,0.0000,0.0000,40.077666,116.428978,43.6,0.00,157.6
24606.107,-1.6490,7.5259,6.4179,0.0000,0.0000,0.0000,40.077666,116.428978,43.6,0.00,157.6
24606.115,-1.7400,7.6025,6.2767,0.0000,0.0000,0.0000,40.077666,116.428978,43.6,0.00,157.6
24606.126,-1.8213,7.5977,6.1666,0.0000,0.0000,0.0000,40.077666,116.428978,43.6,0.00,157.6
24606.135,-1.8524,7.5977,6.1068,0.0000,0.0000,0.0000,40.077666,116.428978,43.6,0.00,157.6
24606.145,-1.9290,7.6097,5.9920,0.0000,0.0000,0.0000,40.077666,116.428978,43.6,0.00,157.6
24606.156,-1.8907,7.6049,6.0972,0.0000,0.0000,0.0000,40.077666,116.428978,43.6,0.00,157.6
24606.168,-1.8141,7.5953,5.9513,0.0000,0.0000,0.0000,40.077666,116.428978,43.6,0.00,157.6
24606.176,-1.8620,7.5953,5.9297,0.0000,0.0000,0.0000,40.077666,116.428978,43.6,0.00,157.6
24606.186,-1.8907,7.5953,5.8627,0.0000,0.0000,0.0000,40.077666,116.428978,43.6,0.00,157.6
24606.195,-1.9218,7.6360,5.8029,0.0000,0.0000,0.0000,40.077666,116.428978,43.6,0.00,157.6
24606.205,-1.9242,7.6240,5.8125,0.0000,0.0000,0.0000,40.077666,116.428978,43.6,0.00,157.6
24606.216,-1.9553,7.6216,5.8484,0.0000,0.0000,0.0000,40.077666,116.428978,43.6,0.00,157.6
24606.225,-1.7735,7.6743,5.9441,0.0000,0.0000,0.0000,40.077666,116.428978,43.6,0.00,157.6
24606.236,-1.7878,7.6384,5.9608,0.0000,0.0000,0.0000,40.077666,116.428978,43.6,0.00,157.6
24606.245,-1.8141,7.7102,5.8292,0.0000,0.0000,0.0000,40.077666,116.428978,43.6,0.00,157.6
24606.256,-1.8883,7.7461,5.8173,0.0000,0.0000,0.0000,40.077666,116.428978,43.6,0.00,157.6
24606.266,-1.9984,7.6934,5.7838,0.0000,0.0000,0.0000,40.077666,116.428978,43.6,0.00,157.6
24606.276,-1.9458,7.7245,5.8914,0.0000,0.0000,0.0000,40.077666,116.428978,43.6,0.00,157.6
24606.286,-1.9601,7.6408,5.8101,0.0000,0.0000,0.0000,40.077666,116.428978,43.6,0.00,157.6
24606.296,-1.9745,7.7030,5.9154,0.0000,0.0000,0.0000,40.077666,116.428978,43.6,0.00,157.6
24606.306,-1.9123,7.6982,5.8699,0.0000,0.0000,0.0000,40.077666,116.428978,43.6,0.00,157.6
24606.317,-1.8787,7.7030,5.9489,0.0000,0.0000,0.0000,40.077666,116.428978,43.6,0.00,157.6
24606.328,-1.8309,7.6767,6.0015,0.0000,0.0000,0.0000,40.077666,116.428978,43.6,0.00,157.6
24606.336,-1.8165,7.7054,6.1547,0.0000,0.0000,0.0000,40.077666,116.428978,43.6,0.00,157.6
24606.347,-1.7256,7.6910,6.1978,0.0000,0.0000,0.0000,40.077666,116.428978,43.6,0.00,157.6
24606.356,-1.7088,7.6743,6.3126,0.0000,0.0000,0.0000,40.077666,116.428978,43.6,0.00,157.6
24606.366,-1.6323,7.6791,6.3892,0.0000,0.0000,0.0000,40.077666,116.428978,43.6,0.00,157.6
24606.377,-1.6825,7.6503,6.2648,0.0000,0.0000,0.0000,40.077666,116.428978,43.6,0.00,157.6
24606.386,-1.7806,7.6934,6.1858,0.0000,0.0000,0.0000,40.077666,116.428978,43.6,0.00,157.6
24606.397,-1.8117,7.7173,6.1930,0.0000,0.0000,0.0000,40.077666,116.428978,43.6,0.00,157.6
24606.406,-1.9266,7.7772,6.0278,0.0000,0.0000,0.0000,40.077666,116.428978,43.6,0.00,157.6
24606.416,-1.9984,7.8155,5.9537,0.0000,0.0000,0.0000,40.077666,116.428978,43.6,0.00,157.6
24606.427,-1.9170,7.8777,5.8316,0.0000,0.0000,0.0000,40.077666,116.428978,43.6,0.00,157.6
24606.437,-1.6945,7.8801,5.7431,0.0000,0.0000,0.0000,40.077666,116.428978,43.6,0.00,157.6
24606.447,-1.6801,7.7676,5.6378,0.0000,0.0000,0.0000,40.077666,116.428978,43.6,0.00,157.6
24606.457,-1.5413,7.8322,5.7957,0.0000,0.0000,0.0000,40.077666,116.428978,43.6,0.00,157.6
24606.473,-1.5796,7.7987,5.9417,0.0000,0.0000,0.0000,40.077666,116.428978,43.6,0.00,157.6
24606.478,-1.5270,7.8107,5.9441,0.0000,0.0000,0.0000,40.077666,116.428978,43.6,0.00,157.6
24606.490,-1.4983,7.7628,5.9656,0.0000,0.0000,0.0000,40.077666,116.428978,43.6,0.00,157.6
24606.497,-1.5796,7.7748,5.8891,0.0000,0.0000,0.0000,40.077666,116.428978,43.6,0.00,157.6
24606.508,-1.5054,7.7652,5.9202,0.0000,0.0000,0.0000,40.077666,116.428978,43.6,0.00,157.6
24606.518,-1.3619,7.7724,5.7431,0.0000,0.0000,0.0000,40.077666,116.428978,43.6,0.00,157.6
24606.528,-1.2087,7.7676,5.5804,0.0000,0.0000,0.0000,40.077666,116.428978,43.6,0.00,157.6
24606.538,-1.0771,7.8059,5.7335,0.0000,0.0000,0.0000,40.077666,116.428978,43.6,0.00,157.6
24606.548,-1.3236,7.8418,5.7024,0.0000,0.0000,0.0000,40.077666,116.428978,43.6,0.00,157.6
24606.558,-1.5030,7.9447,5.5373,0.0000,0.0000,0.0000,40.077666,116.428978,43.6,0.00,157.6
24606.568,-1.4002,7.8825,5.5421,0.0000,0.0000,0.0000,40.077666,116.428978,43.6,0.00,157.6
24606.578,-1.5030,7.8466,5.4176,0.0000,0.0000,0.0000,40.077666,116.428978,43.6,0.00,157.6
24606.587,-1.6753,7.8370,5.3578,0.0000,0.0000,0.0000,40.077666,116.428978,43.6,0.00,157.6
24606.598,-1.6466,7.9686,5.2070,0.0000,0.0000,0.0000,40.077666,116.428978,43.6,0.00,157.6
24606.608,-1.6777,7.9590,5.0778,0.0000,0.0000,0.0000,40.077666,116.428978,43.6,0.00,157.6
24606.618,-1.6682,7.9686,5.0994,0.0000,0.0000,0.0000,40.077666,116.428978,43.6,0.00,157.6
24606.627,-1.6418,8.0739,5.1161,0.0000,0.0000,0.0000,40.077666,116.428978,43.6,0.00,157.6
24606.638,-1.5246,8.1194,5.4224,0.0000,0.0000,0.0000,40.077666,116.428978,43.6,0.00,157.6
24606.649,-1.4839,8.1864,5.5181,0.0000,0.0000,0.0000,40.077666,116.428978,43.6,0.00,157.6
24606.657,-1.1250,8.3156,5.4918,0.0000,0.0000,0.0000,40.077666,116.428978,43.6,0.00,157.6
24606.668,-1.0077,8.4257,5.3554,0.0000,0.0000,0.0000,40.077666,116.428978,43.6,0.00,157.6
24606.678,-1.0915,8.3443,5.1329,0.0000,0.0000,0.0000,40.077666,116.428978,43.6,0.00,157.6
24606.688,-1.4002,8.1888,4.8242,0.0000,0.0000,0.0000,40.077666,116.428978,43.6,0.00,157.6
24606.698,-1.2853,8.2247,4.6854,0.0000,0.0000,0.0000,40.077666,116.428978,43.6,0.00,157.6
24606.708,-1.2279,8.1433,4.6926,0.0000,0.0000,0.0000,40.077666,116.428978,43.6,0.00,157.6
24606.718,-1.5461,8.1194,4.7787,0.0000,0.0000,0.0000,40.077666,116.428978,43.6,0.00,157.6
24606.728,-1.7041,8.0308,4.9366,0.0000,0.0000,0.0000,40.077666,116.428978,43.6,0.00,157.6
24606.737,-1.8429,8.0548,4.9773,0.0000,0.0000,0.0000,40.077666,116.428978,43.6,0.00,157.6
24606.748,-2.0199,8.1816,5.0970,0.0000,0.0000,0.0000,40.077666,116.428978,43.6,0.00,157.6
24606.758,-1.9960,8.2318,4.9678,0.0000,0.0000,0.0000,40.077666,116.428978,43.6,0.00,157.6
24606.768,-1.8596,8.1768,4.8170,0.0000,0.0000,0.0000,40.077666,116.428978,43.6,0.00,157.6
24606.778,-1.7782,8.1337,4.6973,0.0000,0.0000,0.0000,40.077666,116.428978,43.6,0.00,157.6
24606.788,-1.8261,8.0787,4.7356,0.0000,0.0000,0.0000,40.077666,116.428978,43.6,0.00,157.6
24606.798,-1.8500,8.1194,4.8218,0.0000,0.0000,0.0000,40.077666,116.428978,43.6,0.00,157.6
24606.810,-1.8620,8.1433,5.0515,0.0000,0.0000,0.0000,40.077666,116.428978,43.6,0.00,157.6
24606.819,-1.8405,8.1481,5.1759,0.0000,0.0000,0.0000,40.077666,116.428978,43.6,0.00,157.6
24606.829,-2.0319,8.2486,5.3458,0.0000,0.0000,0.0000,40.077666,116.428978,43.6,0.00,157.6
24606.839,-2.0558,8.1792,5.2645,0.0000,0.0000,0.0000,40.077666,116.428978,43.6,0.00,157.6
24606.849,-2.1252,8.0907,5.1544,0.0000,0.0000,0.0000,40.077666,116.428978,43.6,0.00,157.6
24606.859,-2.1037,8.1146,5.1472,0.0000,0.0000,0.0000,40.077666,116.428978,43.6,0.00,157.6
24606.868,-2.1563,8.0978,5.0156,0.0000,0.0000,0.0000,40.077666,116.428978,43.6,0.00,157.6
24606.878,-2.1013,8.1170,5.0970,0.0000,0.0000,0.0000,40.077666,116.428978,43.6,0.00,157.6
24606.889,-2.0271,8.0763,4.9462,0.0000,0.0000,0.0000,40.077666,116.428978,43.6,0.00,157.6
24606.899,-1.9816,8.1816,4.8936,0.0000,0.0000,0.0000,40.077666,116.428978,43.6,0.00,157.6
24606.908,-2.0750,8.1648,4.8625,0.0000,0.0000,0.0000,40.077666,116.428978,43.6,0.00,157.6
24606.918,-2.0247,8.2103,4.8840,0.0000,0.0000,0.0000,40.077666,116.428978,43.6,0.00,157.6
24606.928,-2.0391,8.1505,5.0898,0.0000,0.0000,0.0000,40.077666,116.428978,43.6,0.00,157.6
24606.939,-1.8285,8.1218,5.4822,0.0000,0.0000,0.0000,40.077666,116.428978,43.6,0.00,157.6
24606.949,-1.8285,8.1122,5.4655,0.0000,0.0000,0.0000,40.077666,116.428978,43.6,0.00,157.6
24606.959,-1.8596,8.0428,5.2788,0.0000,0.0000,0.0000,40.077666,116.428978,43.6,0.00,157.6
24606.971,-1.7974,8.0954,5.1831,0.0000,0.0000,0.0000,40.077666,116.428978,43.6,0.00,157.6
24606.979,-1.7711,8.4400,5.0491,0.0000,0.0000,0.0000,40.077666,116.428978,43.6,0.00,157.6
24606.989,-1.6490,8.6698,4.8457,0.0000,0.0000,0.0000,40.077666,116.428978,43.6,0.00,157.6
24606.999,-1.3188,8.7679,4.8768,0.0000,0.0000,0.0000,40.077666,116.428978,43.6,0.00,157.6
24607.009,-1.2159,8.5310,4.8505,0.0000,0.0000,0.0000,40.077666,116.428978,43.6,0.00,157.6
24607.019,-1.1872,8.2653,4.8170,0.0000,0.0000,0.0000,40.077666,116.428978,43.6,0.00,157.6
24607.029,-1.2973,8.1218,4.8122,0.0000,0.0000,0.0000,40.077666,116.428978,43.6,0.00,157.6
24607.039,-1.3284,8.2629,4.9271,0.0000,0.0000,0.0000,40.077666,116.428978,43.6,0.00,157.6
24607.049,-1.2901,8.3682,4.8266,0.0000,0.0000,0.0000,40.077666,116.428978,43.6,0.00,157.6
24607.059,-1.4289,8.4065,4.7978,0.0000,0.0000,0.0000,40.077666,116.428978,43.6,0.00,157.6
24607.068,-1.5677,8.5118,4.7787,0.0000,0.0000,0.0000,40.077666,116.428978,43.6,0.00,157.6
24607.079,-1.6610,8.5860,4.7524,0.0000,0.0000,0.0000,40.077666,116.428978,43.6,0.00,157.6
24607.089,-1.7950,8.5238,4.7141,0.0000,0.0000,0.0000,40.077666,116.428978,43.6,0.00,157.6
24607.099,-1.9266,8.2773,4.7811,0.0000,0.0000,0.0000,40.077666,116.428978,43.6,0.00,157.6
24607.109,-2.0582,8.1672,4.7596,0.0000,0.0000,0.0000,40.077666,116.428978,43.6,0.00,157.6
24607.119,-2.2545,8.1026,4.6662,0.0000,0.0000,0.0000,40.077666,116.428978,43.6,0.00,157.6
24607.132,-2.8336,7.9997,2.8164,0.0000,0.0000,0.0000,40.077666,116.428978,43.6,0.00,157.6
24607.140,-2.9245,8.2294,4.1182,0.0000,0.0000,0.0000,40.077666,116.428978,43.6,0.00,157.6
24607.150,-2.4890,8.3443,4.3456,0.0000,0.0000,0.0000,40.077666,116.428978,43.6,0.00,157.6
24607.160,-2.6158,8.3515,3.9986,0.0000,0.0000,0.0000,40.077666,116.428978,43.6,0.00,157.6
24607.170,-2.6445,8.3347,4.4700,0.0000,0.0000,0.0000,40.077666,116.428978,43.6,0.00,157.6
24607.180,-2.6086,8.3993,4.7045,0.0000,0.0000,0.0000,40.077666,116.428978,43.6,0.00,157.6
24607.190,-2.3980,8.3060,4.9678,0.0000,0.0000,0.0000,40.077666,116.428978,43.6,0.00,157.6
24607.200,-2.4770,8.2845,5.4128,0.0000,0.0000,0.0000,40.077666,116.428978,43.6,0.00,157.6
24607.210,-2.4196,8.2964,5.8005,0.0000,0.0000,0.0000,40.077666,116.428978,43.6,0.00,157.6
24607.219,-2.3526,8.2223,5.6426,0.0000,0.0000,0.0000,40.077666,116.428978,43.6,0.00,157.6
24607.230,-2.3286,8.1888,5.4775,0.0000,0.0000,0.0000,40.077666,116.428978,43.6,0.00,157.6
24607.239,-2.2736,8.3036,5.0802,0.0000,0.0000,0.0000,40.077666,116.428978,43.6,0.00,157.6
24607.250,-2.1659,8.3587,4.9630,0.0000,0.0000,0.0000,40.077666,116.428978,43.6,0.00,157.6
24607.260,-2.2329,8.3850,4.8864,0.0000,0.0000,0.0000,40.077666,116.428978,43.6,0.00,157.6
24607.269,-2.1898,8.2773,4.7978,0.0000,0.0000,0.0000,40.077666,116.428978,43.6,0.00,157.6
24607.280,-2.1683,8.2701,4.7931,0.0000,0.0000,0.0000,40.077666,116.428978,43.6,0.00,157.6
24607.292,-2.2042,8.2079,4.8337,0.0000,0.0000,0.0000,40.077666,116.428978,43.6,0.00,157.6
24607.299,-2.2425,8.1553,4.7955,0.0000,0.0000,0.0000,40.077666,116.428978,43.6,0.00,157.6
24607.310,-2.2832,8.1337,4.7500,0.0000,0.0000,0.0000,40.077666,116.428978,43.6,0.00,157.6
24607.320,-2.2425,8.1002,4.7955,0.0000,0.0000,0.0000,40.077666,116.428978,43.6,0.00,157.6
24607.329,-2.1635,8.1265,4.7548,0.0000,0.0000,0.0000,40.077666,116.428978,43.6,0.00,157.6
24607.340,-2.0917,8.1864,4.7739,0.0000,0.0000,0.0000,40.077666,116.428978,43.6,0.00,157.6
24607.349,-2.1252,8.2318,4.7787,0.0000,0.0000,0.0000,40.077666,116.428978,43.6,0.00,157.6
24607.360,-2.0965,8.1744,4.7883,0.0000,0.0000,0.0000,40.077666,116.428978,43.6,0.00,157.6
24607.371,-2.1085,8.1289,4.7428,0.0000,0.0000,0.0000,40.077666,116.428978,43.6,0.00,157.6
24607.380,-2.1276,8.1170,4.8026,0.0000,0.0000,0.0000,40.077666,116.428978,43.6,0.00,157.6
24607.391,-2.1563,8.1218,4.8337,0.0000,0.0000,0.0000,40.077666,116.428978,43.6,0.00,157.6
24607.400,-2.1420,8.1505,4.9127,0.0000,0.0000,0.0000,40.077666,116.428978,43.6,0.00,157.6
24607.411,-2.1181,8.1337,4.9342,0.0000,0.0000,0.0000,40.077666,116.428978,43.6,0.00,157.6
24607.421,-2.1492,8.1481,4.9342,0.0000,0.0000,0.0000,40.077666,116.428978,43.6,0.00,157.6
24607.430,-2.1539,8.1553,4.8457,0.0000,0.0000,0.0000,40.077666,116.428978,43.6,0.00,157.6
24607.440,-2.0989,8.1624,4.8625,0.0000,0.0000,0.0000,40.077666,116.428978,43.6,0.00,157.6
24607.453,-2.1659,8.1696,4.8194,0.0000,0.0000,0.0000,40.077666,116.428978,43.6,0.00,157.6
24607.461,-2.1396,8.1337,4.9127,0.0000,0.0000,0.0000,40.077666,116.428978,43.6,0.00,157.6
24607.471,-2.2042,8.2366,4.8744,0.0000,0.0000,0.0000,40.077666,116.428978,43.6,0.00,157.6
24607.481,-2.2880,8.2606,4.7907,0.0000,0.0000,0.0000,40.077666,116.428978,43.6,0.00,157.6
24607.490,-2.3262,8.1409,4.8146,0.0000,0.0000,0.0000,40.077666,116.428978,43.6,0.00,157.6
24607.500,-2.2999,8.0835,4.9438,0.0000,0.0000,0.0000,40.077666,116.428978,43.6,0.00,157.6
24607.511,-2.2329,8.0045,5.1089,0.0000,0.0000,0.0000,40.077666,116.428978,43.6,0.00,157.6
24607.520,-2.1133,8.1170,5.1185,0.0000,0.0000,0.0000,40.077666,116.428978,43.6,0.00,157.6
24607.531,-2.0774,8.1648,5.0395,0.0000,0.0000,0.0000,40.077666,116.428978,43.6,0.00,157.6
24607.541,-2.1013,8.2175,4.9486,0.0000,0.0000,0.0000,40.077666,116.428978,43.6,0.00,157.6
24607.550,-2.0869,8.0715,4.8002,0.0000,0.0000,0.0000,40.077666,116.428978,43.6,0.00,157.6
24607.561,-2.0726,8.0069,4.7907,0.0000,0.0000,0.0000,40.077666,116.428978,43.6,0.00,157.6
24607.571,-2.0941,8.0236,4.9127,0.0000,0.0000,0.0000,40.077666,116.428978,43.6,0.00,157.6
24607.581,-2.1013,7.9878,4.8385,0.0000,0.0000,0.0000,40.077666,116.428978,43.6,0.00,157.6
24607.591,-2.1228,8.0883,4.9103,0.0000,0.0000,0.0000,40.077666,116.428978,43.6,0.00,157.6
24607.600,-2.1109,8.0978,5.1903,0.0000,0.0000,0.0000,40.077666,116.428978,43.6,0.00,157.6
24607.614,-2.1037,7.9925,5.5516,0.0000,0.0000,0.0000,40.077666,116.428978,43.6,0.00,157.6
24607.621,-2.0247,8.0835,5.5851,0.0000,0.0000,0.0000,40.077666,116.428978,43.6,0.00,157.6
24607.631,-1.7352,7.9734,5.5875,0.0000,0.0000,0.0000,40.077666,116.428978,43.6,0.00,157.6
24607.641,-1.5509,7.8896,5.6713,0.0000,0.0000,0.0000,40.077666,116.428978,43.6,0.00,157.6
24607.650,-1.5389,7.9064,5.8125,0.0000,0.0000,0.0000,40.077666,116.428978,43.6,0.00,157.6
24607.661,-1.7663,7.8155,5.8197,0.0000,0.0000,0.0000,40.077666,116.428978,43.6,0.00,157.6
24607.671,-1.9003,7.8633,5.8603,0.0000,0.0000,0.0000,40.077666,116.428978,43.6,0.00,157.6
24607.681,-1.9888,7.8298,5.8819,0.0000,0.0000,0.0000,40.077666,116.428978,43.6,0.00,157.6
24607.692,-1.9266,7.8370,5.6426,0.0000,0.0000,0.0000,40.077666,116.428978,43.6,0.00,157.6
24607.702,-1.8907,7.8801,5.4416,0.0000,0.0000,0.0000,40.077666,116.428978,43.6,0.00,157.6
24607.711,-1.7687,7.8155,5.2573,0.0000,0.0000,0.0000,40.077666,116.428978,43.6,0.00,157.6
24607.722,-1.7782,7.8322,5.0994,0.0000,0.0000,0.0000,40.077666,116.428978,43.6,0.00,157.6
24607.732,-1.7495,7.8322,5.1496,0.0000,0.0000,0.0000,40.077666,116.428978,43.6,0.00,157.6
24607.741,-1.7782,7.8609,5.4033,0.0000,0.0000,0.0000,40.077666,116.428978,43.6,0.00,157.6
24607.752,-1.7495,7.7915,5.7024,0.0000,0.0000,0.0000,40.077666,116.428978,43.6,0.00,157.6
24607.762,-1.7591,7.7843,5.9489,0.0000,0.0000,0.0000,40.077666,116.428978,43.6,0.00,157.6
24607.775,-1.7926,7.7341,5.9537,0.0000,0.0000,0.0000,40.077666,116.428978,43.6,0.00,157.6
24607.782,-1.8716,7.7413,6.1116,0.0000,0.0000,0.0000,40.077666,116.428978,43.6,0.00,157.6
24607.792,-1.8524,7.7293,6.1690,0.0000,0.0000,0.0000,40.077666,116.428978,43.6,0.00,157.6
24607.802,-1.8716,7.7604,6.1690,0.0000,0.0000,0.0000,40.077666,116.428978,43.6,0.00,157.6
24607.812,-1.8811,7.7796,5.9297,0.0000,0.0000,0.0000,40.077666,116.428978,43.6,0.00,157.6
24607.821,-1.9314,7.7485,5.7359,0.0000,0.0000,0.0000,40.077666,116.428978,43.6,0.00,157.6
24607.832,-1.9075,7.8370,5.5516,0.0000,0.0000,0.0000,40.077666,116.428978,43.6,0.00,157.6
24607.842,-1.8452,7.8394,5.5612,0.0000,0.0000,0.0000,40.077666,116.428978,43.6,0.00,157.6
24607.851,-1.8452,7.7532,5.5277,0.0000,0.0000,0.0000,40.077666,116.428978,43.6,0.00,157.6
24607.862,-1.7328,7.7461,5.5492,0.0000,0.0000,0.0000,40.077666,116.428978,43.6,0.00,157.6
24607.872,-1.7806,7.7173,5.6761,0.0000,0.0000,0.0000,40.077666,116.428978,43.6,0.00,157.6
24607.882,-1.7974,7.7652,5.7862,0.0000,0.0000,0.0000,40.077666,116.428978,43.6,0.00,157.6
24607.891,-1.7208,7.6982,5.9800,0.0000,0.0000,0.0000,40.077666,116.428978,43.6,0.00,157.6
24607.902,-1.6849,7.7150,5.9656,0.0000,0.0000,0.0000,40.077666,116.428978,43.6,0.00,157.6
24607.913,-1.8740,7.7365,5.6809,0.0000,0.0000,0.0000,40.077666,116.428978,43.6,0.00,157.6
24607.923,-1.9123,7.8226,5.4822,0.0000,0.0000,0.0000,40.077666,116.428978,43.6,0.00,157.6
24607.934,-1.8213,7.7796,5.2453,0.0000,0.0000,0.0000,40.077666,116.428978,43.6,0.00,157.6
24607.942,-1.7304,7.7676,5.2047,0.0000,0.0000,0.0000,40.077666,116.428978,43.6,0.00,157.6
24607.953,-1.7639,7.7604,5.4942,0.0000,0.0000,0.0000,40.077666,116.428978,43.6,0.00,157.6
24607.962,-1.7711,7.7963,5.6880,0.0000,0.0000,0.0000,40.077666,116.428978,43.6,0.00,157.6
24607.973,-1.7304,7.7843,6.0183,0.0000,0.0000,0.0000,40.077666,116.428978,43.6,0.00,157.6
24607.983,-1.6777,7.8155,6.2336,0.0000,0.0000,0.0000,40.077666,116.428978,43.6,0.00,157.6
24607.992,-1.7017,7.7820,6.3509,0.0000,0.0000,0.0000,40.077666,116.428978,43.6,0.00,157.6
24608.003,-1.6418,7.6982,6.4921,0.0000,0.0000,0.0000,40.077666,116.428978,43.6,0.00,157.6
24608.013,-1.5581,7.7173,6.2217,0.0000,0.0000,0.0000,40.077666,116.428978,43.6,0.00,157.6
24608.022,-1.7232,7.7628,6.0207,0.0000,0.0000,0.0000,40.077666,116.428978,43.6,0.00,157.6
24608.033,-1.7400,7.9734,5.7168,0.0000,0.0000,0.0000,40.077666,116.428978,43.6,0.00,157.6
24608.042,-1.5988,7.9255,5.3147,0.0000,0.0000,0.0000,40.077666,116.428978,43.6,0.00,157.6
24608.052,-1.3954,7.8346,5.0443,0.0000,0.0000,0.0000,40.077666,116.428978,43.6,0.00,157.6
24608.063,-0.8880,7.6886,4.9103,0.0000,0.0000,0.0000,40.077666,116.428978,43.6,0.00,157.6
24608.072,-0.4453,7.5403,5.0659,0.0000,0.0000,0.0000,40.077666,116.428978,43.6,0.00,157.6
24608.083,-0.3281,7.5474,5.9130,0.0000,0.0000,0.0000,40.077666,116.428978,43.6,0.00,157.6
24608.094,-0.8426,7.5522,6.7314,0.0000,0.0000,0.0000,40.077666,116.428978,43.6,0.00,157.6
24608.103,-1.6490,7.6097,7.1358,0.0000,0.0000,0.0000,40.077666,116.428978,43.6,0.00,157.6
24608.113,-2.0654,7.6408,6.9204,0.0000,0.0000,0.0000,40.077666,116.428978,43.6,0.00,157.6
24608.123,-2.0798,7.7102,6.0422,0.0000,0.0000,0.0000,40.077666,116.428978,43.6,0.00,157.6
24608.133,-1.8596,7.7724,5.5445,0.0000,0.0000,0.0000,40.077666,116.428978,43.6,0.00,157.6
24608.143,-1.8811,7.7820,5.0228,0.0000,0.0000,0.0000,40.077666,116.428978,43.6,0.00,157.6
24608.152,-2.1109,7.7532,5.1783,0.0000,0.0000,0.0000,40.077666,116.428978,43.6,0.00,157.6
24608.162,-2.3550,7.7724,5.3123,0.0000,0.0000,0.0000,40.077666,116.428978,43.6,0.00,157.6
24608.173,-2.9676,7.7508,5.5516,0.0000,0.0000,0.0000,40.077666,116.428978,43.6,0.00,157.6
24608.182,-3.6328,7.7197,5.4535,0.0000,0.0000,0.0000,40.077666,116.428978,43.6,0.00,157.6
24608.193,-4.0348,7.7078,5.0754,0.0000,0.0000,0.0000,40.077666,116.428978,43.6,0.00,157.6
24608.203,-4.2430,7.8346,4.3121,0.0000,0.0000,0.0000,40.077666,116.428978,43.6,0.00,157.6
24608.212,-4.3651,7.9303,3.3429,0.0000,0.0000,0.0000,40.077666,116.428978,43.6,0.00,157.6
24608.223,-4.4201,7.9136,2.6178,0.0000,0.0000,0.0000,40.077666,116.428978,43.6,0.00,157.6
24608.232,-4.3986,7.9614,2.3690,0.0000,0.0000,0.0000,40.077666,116.428978,43.6,0.00,157.6
24608.244,-4.5063,7.9925,2.2182,0.0000,0.0000,0.0000,40.077666,116.428978,43.6,0.00,157.6
24608.255,-4.6833,8.0954,2.3666,0.0000,0.0000,0.0000,40.077666,116.428978,43.6,0.00,157.6
24608.263,-4.9944,8.2175,2.4838,0.0000,0.0000,0.0000,40.077666,116.428978,43.6,0.00,157.6
24608.274,-5.1021,8.3611,2.4479,0.0000,0.0000,0.0000,40.077666,116.428978,43.6,0.00,157.6
24608.284,-5.1978,8.2941,2.2493,0.0000,0.0000,0.0000,40.077666,116.428978,43.6,0.00,157.6
24608.293,-5.1859,8.4089,1.9956,0.0000,0.0000,0.0000,40.077666,116.428978,43.6,0.00,157.6
24608.303,-6.3226,8.8229,-4.5396,0.0000,0.0000,0.0000,40.077666,116.428978,43.6,0.00,157.6
24608.314,-6.3202,8.2342,-1.7566,0.0000,0.0000,0.0000,40.077666,116.428978,43.6,0.00,157.6
24608.323,-5.3797,7.7652,3.4434,0.0000,0.0000,0.0000,40.077666,116.428978,43.6,0.00,157.6
24608.334,-5.0088,8.2079,5.0539,0.0000,0.0000,0.0000,40.077666,116.428978,43.6,0.00,157.6
24608.344,-5.6501,8.8636,4.0799,0.0000,0.0000,0.0000,40.077666,116.428978,43.6,0.00,157.6
24608.354,-5.9062,8.8540,2.3761,0.0000,0.0000,0.0000,40.077666,116.428978,43.6,0.00,157.6
24608.364,-6.0713,8.7320,1.4572,0.0000,0.0000,0.0000,40.077666,116.428978,43.6,0.00,157.6
24608.373,-5.8248,8.6722,1.1318,0.0000,0.0000,0.0000,40.077666,116.428978,43.6,0.00,157.6
24608.384,-5.7626,8.7439,1.1868,0.0000,0.0000,0.0000,40.077666,116.428978,43.6,0.00,157.6
24608.395,-5.4706,8.7176,1.5242,0.0000,0.0000,0.0000,40.077666,116.428978,43.6,0.00,157.6
24608.403,-4.9466,8.4352,2.2038,0.0000,0.0000,0.0000,40.077666,116.428978,43.6,0.00,157.6
24608.417,-4.5709,8.1385,2.5843,0.0000,0.0000,0.0000,40.077666,116.428978,43.6,0.00,157.6
24608.449,-4.5422,8.1289,2.9457,0.0000,0.0000,0.0000,40.077666,116.428978,43.6,0.00,157.6
24608.449,-4.5637,8.0739,3.4434,0.0000,0.0000,0.0000,40.077666,116.428978,43.6,0.00,157.6
24608.449,-4.6403,8.0739,3.6348,0.0000,0.0000,0.0000,40.077666,116.428978,43.6,0.00,157.6
24608.458,-4.5254,8.1337,3.7713,0.0000,0.0000,0.0000,40.077666,116.428978,43.6,0.00,157.6
24608.497,-4.3124,8.1170,3.8359,0.0000,0.0000,0.0000,40.077666,116.428978,43.6,0.00,157.6
24608.507,-3.8506,7.9997,3.9340,0.0000,0.0000,0.0000,40.077666,116.428978,43.6,0.00,157.6
24608.507,-3.4701,7.8490,4.1398,0.0000,0.0000,0.0000,40.077666,116.428978,43.6,0.00,157.6
24608.507,-3.1064,7.7987,4.5466,0.0000,0.0000,0.0000,40.077666,116.428978,43.6,0.00,157.6
24608.507,-2.6852,7.6456,4.7620,0.0000,0.0000,0.0000,40.077666,116.428978,43.6,0.00,157.6
24608.514,-2.5416,7.5833,4.8984,0.0000,0.0000,0.0000,40.077666,116.428978,43.6,0.00,157.6
24608.529,-2.6014,7.5738,5.1999,0.0000,0.0000,0.0000,40.077666,116.428978,43.6,0.00,157.6
24608.535,-2.8671,7.5546,5.3817,0.0000,0.0000,0.0000,40.077666,116.428978,43.6,0.00,157.6
24608.546,-2.7450,7.6982,5.4535,0.0000,0.0000,0.0000,40.077666,116.428978,43.6,0.00,157.6
24608.555,-2.6349,7.7915,5.2334,0.0000,0.0000,0.0000,40.077666,116.428978,43.6,0.00,157.6
24608.565,-2.5751,8.0093,4.8984,0.0000,0.0000,0.0000,40.077666,116.428978,43.6,0.00,157.6
24608.576,-2.4626,8.0859,4.9199,0.0000,0.0000,0.0000,40.077666,116.428978,43.6,0.00,157.6
24608.585,-2.3909,8.1002,4.9271,0.0000,0.0000,0.0000,40.077666,116.428978,43.6,0.00,157.6
24608.594,-2.3861,8.0308,5.0443,0.0000,0.0000,0.0000,40.077666,116.428978,43.6,0.00,157.6
24608.604,-2.2497,7.8657,5.0946,0.0000,0.0000,0.0000,40.077666,116.428978,43.6,0.00,157.6
24608.615,-2.1157,7.6838,5.3554,0.0000,0.0000,0.0000,40.077666,116.428978,43.6,0.00,157.6
24608.624,-1.9553,7.6743,5.5516,0.0000,0.0000,0.0000,40.077666,116.428978,43.6,0.00,157.6
24608.634,-1.8692,7.6527,5.7814,0.0000,0.0000,0.0000,40.077666,116.428978,43.6,0.00,157.6
24608.645,-1.8261,7.6240,5.7981,0.0000,0.0000,0.0000,40.077666,116.428978,43.6,0.00,157.6
24608.655,-1.8668,7.6575,5.8077,0.0000,0.0000,0.0000,40.077666,116.428978,43.6,0.00,157.6
24608.665,-1.8548,7.6384,5.8436,0.0000,0.0000,0.0000,40.077666,116.428978,43.6,0.00,157.6
24608.675,-1.8740,7.6886,5.8484,0.0000,0.0000,0.0000,40.077666,116.428978,43.6,0.00,157.6
24608.685,-1.9816,7.6719,5.7814,0.0000,0.0000,0.0000,40.077666,116.428978,43.6,0.00,157.6
24608.695,-2.0798,7.7245,5.7574,0.0000,0.0000,0.0000,40.077666,116.428978,43.6,0.00,157.6
24608.705,-2.1755,7.7772,5.6402,0.0000,0.0000,0.0000,40.077666,116.428978,43.6,0.00,157.6
24608.715,-2.1827,7.7820,5.5780,0.0000,0.0000,0.0000,40.077666,116.428978,43.6,0.00,157.6
24608.725,-2.1204,7.6910,5.7622,0.0000,0.0000,0.0000,40.077666,116.428978,43.6,0.00,157.6
24608.738,-2.1539,7.6456,5.8197,0.0000,0.0000,0.0000,40.077666,116.428978,43.6,0.00,157.6
24608.745,-2.0630,7.6264,5.9680,0.0000,0.0000,0.0000,40.077666,116.428978,43.6,0.00,157.6
24608.755,-2.0439,7.6336,6.0685,0.0000,0.0000,0.0000,40.077666,116.428978,43.6,0.00,157.6
24608.764,-1.9099,7.6647,6.2743,0.0000,0.0000,0.0000,40.077666,116.428978,43.6,0.00,157.6
24608.774,-1.9290,7.6695,6.2839,0.0000,0.0000,0.0000,40.077666,116.428978,43.6,0.00,157.6
24608.784,-1.8189,7.6886,6.1762,0.0000,0.0000,0.0000,40.077666,116.428978,43.6,0.00,157.6
24608.795,-1.9434,7.7173,6.0590,0.0000,0.0000,0.0000,40.077666,116.428978,43.6,0.00,157.6
24608.806,-2.0199,7.7461,5.9513,0.0000,0.0000,0.0000,40.077666,116.428978,43.6,0.00,157.6
24608.815,-1.9793,7.6862,5.8197,0.0000,0.0000,0.0000,40.077666,116.428978,43.6,0.00,157.6
24608.826,-1.9170,7.6934,5.6689,0.0000,0.0000,0.0000,40.077666,116.428978,43.6,0.00,157.6
24608.835,-2.0271,7.6838,5.4894,0.0000,0.0000,0.0000,40.077666,116.428978,43.6,0.00,157.6
24608.845,-2.0128,7.6767,5.5804,0.0000,0.0000,0.0000,40.077666,116.428978,43.6,0.00,157.6
24608.856,-2.0223,7.6647,5.7096,0.0000,0.0000,0.0000,40.077666,116.428978,43.6,0.00,157.6
24608.866,-1.9434,7.6934,5.8268,0.0000,0.0000,0.0000,40.077666,116.428978,43.6,0.00,157.6
24608.875,-1.9888,7.7078,6.0590,0.0000,0.0000,0.0000,40.077666,116.428978,43.6,0.00,157.6
24608.885,-1.8955,7.6767,6.0135,0.0000,0.0000,0.0000,40.077666,116.428978,43.6,0.00,157.6
24608.898,-1.9003,7.6862,5.9154,0.0000,0.0000,0.0000,40.077666,116.428978,43.6,0.00,157.6
24608.905,-1.8811,7.7030,5.8364,0.0000,0.0000,0.0000,40.077666,116.428978,43.6,0.00,157.6
24608.915,-1.9864,7.6838,5.5708,0.0000,0.0000,0.0000,40.077666,116.428978,43.6,0.00,157.6
24608.925,-1.9529,7.7365,5.5851,0.0000,0.0000,0.0000,40.077666,116.428978,43.6,0.00,157.6
24608.936,-1.9529,7.6958,5.5588,0.0000,0.0000,0.0000,40.077666,116.428978,43.6,0.00,157.6
24608.946,-1.9769,7.7197,5.5516,0.0000,0.0000,0.0000,40.077666,116.428978,43.6,0.00,157.6
24608.956,-2.0080,7.6862,5.6689,0.0000,0.0000,0.0000,40.077666,116.428978,43.6,0.00,157.6
24608.966,-2.0104,7.7508,5.8532,0.0000,0.0000,0.0000,40.077666,116.428978,43.6,0.00,157.6
24608.975,-2.0175,7.7317,5.9058,0.0000,0.0000,0.0000,40.077666,116.428978,43.6,0.00,157.6
24608.986,-1.9649,7.7150,5.8221,0.0000,0.0000,0.0000,40.077666,116.428978,43.6,0.00,157.6
24608.995,-1.9051,7.7269,5.7981,0.0000,0.0000,0.0000,40.077666,116.428978,43.6,0.00,157.6
24609.005,-1.8835,7.6862,5.7335,0.0000,0.0000,0.0000,40.077666,116.428978,43.6,0.00,157.6
24609.016,-1.9649,7.7341,5.6545,0.0000,0.0000,0.0000,40.077666,116.428978,43.6,0.00,157.6
24609.026,-2.0247,7.7293,5.7168,0.0000,0.0000,0.0000,40.077666,116.428978,43.6,0.00,157.6
24609.035,-1.9960,7.7556,5.7598,0.0000,0.0000,0.0000,40.077666,116.428978,43.6,0.00,157.6
24609.046,-1.9529,7.7317,5.7383,0.0000,0.0000,0.0000,40.077666,116.428978,43.6,0.00,157.6
24609.059,-1.9601,7.7150,5.8101,0.0000,0.0000,0.0000,40.077666,116.428978,43.6,0.00,157.6
24609.066,-1.9266,7.7150,5.7790,0.0000,0.0000,0.0000,40.077666,116.428978,43.6,0.00,157.6
24609.076,-1.9769,7.7126,5.6976,0.0000,0.0000,0.0000,40.077666,116.428978,43.6,0.00,157.6
24609.086,-1.9362,7.7365,5.6641,0.0000,0.0000,0.0000,40.077666,116.428978,43.6,0.00,157.6
24609.095,-1.9458,7.7365,5.6856,0.0000,0.0000,0.0000,40.077666,116.428978,43.6,0.00,157.6
24609.106,-2.0080,7.6934,5.6833,0.0000,0.0000,0.0000,40.077666,116.428978,43.6,0.00,157.6
24609.116,-1.8979,7.7556,5.8795,0.0000,0.0000,0.0000,40.077666,116.428978,43.6,0.00,157.6
24609.127,-1.9434,7.7173,5.8651,0.0000,0.0000,0.0000,40.077666,116.428978,43.6,0.00,157.6
24609.137,-1.9793,7.6838,5.8532,0.0000,0.0000,0.0000,40.077666,116.428978,43.6,0.00,157.6
24609.147,-1.9721,7.6743,5.7790,0.0000,0.0000,0.0000,40.077666,116.428978,43.6,0.00,157.6
24609.157,-2.0391,7.6719,5.7263,0.0000,0.0000,0.0000,40.077666,116.428978,43.6,0.00,157.6
24609.166,-2.0463,7.7341,5.6258,0.0000,0.0000,0.0000,40.077666,116.428978,43.6,0.00,157.6
24609.177,-2.0008,7.7604,5.6641,0.0000,0.0000,0.0000,40.077666,116.428978,43.6,0.00,157.6
24609.187,-1.9793,7.7676,5.7024,0.0000,0.0000,0.0000,40.077666,116.428978,43.6,0.00,157.6
24609.197,-2.0152,7.6719,5.7670,0.0000,0.0000,0.0000,40.077666,116.428978,43.6,0.00,157.6
24609.207,-1.9481,7.6456,5.8819,0.0000,0.0000,0.0000,40.077666,116.428978,43.6,0.00,157.6
24609.220,-1.8883,7.6527,5.9393,0.0000,0.0000,0.0000,40.077666,116.428978,43.6,0.00,157.6
24609.227,-1.9123,7.7317,5.9967,0.0000,0.0000,0.0000,40.077666,116.428978,43.6,0.00,157.6
24609.236,-1.9290,7.6886,5.9106,0.0000,0.0000,0.0000,40.077666,116.428978,43.6,0.00,157.6
24609.247,-1.9505,7.7245,5.8843,0.0000,0.0000,0.0000,40.077666,116.428978,43.6,0.00,157.6
24609.257,-1.9601,7.6982,5.8627,0.0000,0.0000,0.0000,40.077666,116.428978,43.6,0.00,157.6
24609.267,-2.0534,7.6503,5.7933,0.0000,0.0000,0.0000,40.077666,116.428978,43.6,0.00,157.6
24609.277,-2.0439,7.6719,5.7311,0.0000,0.0000,0.0000,40.077666,116.428978,43.6,0.00,157.6
24609.287,-1.9481,7.7150,5.6952,0.0000,0.0000,0.0000,40.077666,116.428978,43.6,0.00,157.6
24609.297,-1.9099,7.6695,5.8340,0.0000,0.0000,0.0000,40.077666,116.428978,43.6,0.00,157.6
24609.306,-1.9266,7.6719,5.9920,0.0000,0.0000,0.0000,40.077666,116.428978,43.6,0.00,157.6
24609.317,-1.9625,7.6408,5.9321,0.0000,0.0000,0.0000,40.077666,116.428978,43.6,0.00,157.6
24609.327,-1.9673,7.6384,5.9608,0.0000,0.0000,0.0000,40.077666,116.428978,43.6,0.00,157.6
24609.337,-1.9960,7.6456,6.0111,0.0000,0.0000,0.0000,40.077666,116.428978,43.6,0.00,157.6
24609.348,-1.9984,7.6695,5.9321,0.0000,0.0000,0.0000,40.077666,116.428978,43.6,0.00,157.6
24609.358,-1.9649,7.7054,5.8699,0.0000,0.0000,0.0000,40.077666,116.428978,43.6,0.00,157.6
24609.368,-1.9840,7.6575,5.9154,0.0000,0.0000,0.0000,40.077666,116.428978,43.6,0.00,157.6
24609.379,-1.9793,7.6408,5.7694,0.0000,0.0000,0.0000,40.077666,116.428978,43.6,0.00,157.6
24609.388,-1.9458,7.6168,5.8771,0.0000,0.0000,0.0000,40.077666,116.428978,43.6,0.00,157.6
24609.397,-1.9242,7.6432,5.8699,0.0000,0.0000,0.0000,40.077666,116.428978,43.6,0.00,157.6
24609.407,-1.8859,7.6838,5.8579,0.0000,0.0000,0.0000,40.077666,116.428978,43.6,0.00,157.6
24609.418,-2.0056,7.6432,5.7933,0.0000,0.0000,0.0000,40.077666,116.428978,43.6,0.00,157.6
24609.428,-1.9362,7.6551,5.8508,0.0000,0.0000,0.0000,40.077666,116.428978,43.6,0.00,157.6
24609.438,-1.9458,7.6479,5.8651,0.0000,0.0000,0.0000,40.077666,116.428978,43.6,0.00,157.6
24609.447,-2.0008,7.6001,5.8771,0.0000,0.0000,0.0000,40.077666,116.428978,43.6,0.00,157.6
24609.458,-1.9434,7.6312,5.9680,0.0000,0.0000,0.0000,40.077666,116.428978,43.6,0.00,157.6
24609.468,-1.9123,7.6527,6.0590,0.0000,0.0000,0.0000,40.077666,116.428978,43.6,0.00,157.6
24609.478,-1.9170,7.5953,6.0470,0.0000,0.0000,0.0000,40.077666,116.428978,43.6,0.00,157.6
24609.488,-1.9146,7.6073,6.0278,0.0000,0.0000,0.0000,40.077666,116.428978,43.6,0.00,157.6
24609.498,-1.9601,7.6144,6.0015,0.0000,0.0000,0.0000,40.077666,116.428978,43.6,0.00,157.6
24609.517,-1.9888,7.6479,6.0207,0.0000,0.0000,0.0000,40.077666,116.428978,43.6,0.00,157.6
24609.533,-2.0415,7.6192,6.0207,0.0000,0.0000,0.0000,40.077666,116.428978,43.6,0.00,157.6
24609.533,-2.0199,7.6001,5.9824,0.0000,0.0000,0.0000,40.077666,116.428978,43.6,0.00,157.6
24609.541,-2.0415,7.5977,6.0159,0.0000,0.0000,0.0000,40.077666,116.428978,43.6,0.00,157.6
24609.548,-2.0128,7.6097,5.9513,0.0000,0.0000,0.0000,40.077666,116.428978,43.6,0.00,157.6
24609.557,-1.9960,7.6336,5.9896,0.0000,0.0000,0.0000,40.077666,116.428978,43.6,0.00,157.6
24609.568,-1.9481,7.6527,5.9656,0.0000,0.0000,0.0000,40.077666,116.428978,43.6,0.00,157.6
24609.578,-1.9601,7.5953,6.0446,0.0000,0.0000,0.0000,40.077666,116.428978,43.6,0.00,157.6
24609.587,-1.9625,7.6049,6.0901,0.0000,0.0000,0.0000,40.077666,116.428978,43.6,0.00,157.6
24609.598,-1.9314,7.6264,6.0685,0.0000,0.0000,0.0000,40.077666,116.428978,43.6,0.00,157.6
24609.607,-1.9601,7.6456,6.0877,0.0000,0.0000,0.0000,40.077666,116.428978,43.6,0.00,157.6
24609.618,-1.9458,7.6408,5.9226,0.0000,0.0000,0.0000,40.077666,116.428978,43.6,0.00,157.6
24609.628,-1.9697,7.5953,5.9226,0.0000,0.0000,0.0000,40.077666,116.428978,43.6,0.00,157.6
24609.638,-1.9194,7.6216,5.9465,0.0000,0.0000,0.0000,40.077666,116.428978,43.6,0.00,157.6
24609.648,-1.9146,7.6001,5.9656,0.0000,0.0000,0.0000,40.077666,116.428978,43.6,0.00,157.6
24609.658,-1.8835,7.6240,6.0087,0.0000,0.0000,0.0000,40.077666,116.428978,43.6,0.00,157.6
24609.668,-1.9553,7.6456,6.0207,0.0000,0.0000,0.0000,40.077666,116.428978,43.6,0.00,157.6
24609.679,-1.9888,7.5977,6.0326,0.0000,0.0000,0.0000,40.077666,116.428978,43.6,0.00,157.6
24609.689,-1.9314,7.6527,5.9824,0.0000,0.0000,0.0000,40.077666,116.428978,43.6,0.00,157.6
24609.701,-1.9793,7.6264,6.0087,0.0000,0.0000,0.0000,40.077666,116.428978,43.6,0.00,157.6
24609.709,-2.0104,7.6288,5.9800,0.0000,0.0000,0.0000,40.077666,116.428978,43.6,0.00,157.6
24609.718,-1.9529,7.6456,5.9417,0.0000,0.0000,0.0000,40.077666,116.428978,43.6,0.00,157.6
24609.729,-1.9434,7.6288,5.9967,0.0000,0.0000,0.0000,40.077666,116.428978,43.6,0.00,157.6
24609.739,-1.9864,7.6168,6.0135,0.0000,0.0000,0.0000,40.077666,116.428978,43.6,0.00,157.6
24609.749,-1.9888,7.5857,6.0278,0.0000,0.0000,0.0000,40.077666,116.428978,43.6,0.00,157.6
24609.759,-1.8955,7.6432,6.0159,0.0000,0.0000,0.0000,40.077666,116.428978,43.6,0.00,157.6
24609.769,-1.9362,7.6240,6.0398,0.0000,0.0000,0.0000,40.077666,116.428978,43.6,0.00,157.6
24609.778,-1.9003,7.6264,5.9967,0.0000,0.0000,0.0000,40.077666,116.428978,43.6,0.00,157.6
24609.789,-1.9146,7.5977,6.0446,0.0000,0.0000,0.0000,40.077666,116.428978,43.6,0.00,157.6
24609.798,-1.9003,7.6264,6.0326,0.0000,0.0000,0.0000,40.077666,116.428978,43.6,0.00,157.6
24609.809,-1.9314,7.6384,6.0446,0.0000,0.0000,0.0000,40.077666,116.428978,43.6,0.00,157.6
24609.819,-1.9721,7.6049,6.0566,0.0000,0.0000,0.0000,40.077666,116.428978,43.6,0.00,157.6
24609.829,-2.0032,7.6049,6.0111,0.0000,0.0000,0.0000,40.077666,116.428978,43.6,0.00,157.6
24609.839,-1.9625,7.6503,6.0470,0.0000,0.0000,0.0000,40.077666,116.428978,43.6,0.00,157.6
24609.849,-1.9745,7.6312,6.0350,0.0000,0.0000,0.0000,40.077666,116.428978,43.6,0.00,157.6
24609.862,-1.9362,7.6240,5.9824,0.0000,0.0000,0.0000,40.077666,116.428978,43.6,0.00,157.6
24609.869,-1.9816,7.6575,5.9848,0.0000,0.0000,0.0000,40.077666,116.428978,43.6,0.00,157.6
24609.879,-1.9266,7.6551,5.9608,0.0000,0.0000,0.0000,40.077666,116.428978,43.6,0.00,157.6
24609.889,-1.9410,7.6192,6.0135,0.0000,0.0000,0.0000,40.077666,116.428978,43.6,0.00,157.6
24609.900,-1.9912,7.6216,6.0805,0.0000,0.0000,0.0000,40.077666,116.428978,43.6,0.00,157.6
24609.910,-1.9075,7.6384,6.0829,0.0000,0.0000,0.0000,40.077666,116.428978,43.6,0.00,157.6
24609.920,-1.8716,7.6456,6.0446,0.0000,0.0000,0.0000,40.077666,116.428978,43.6,0.00,157.6
24609.930,-1.8692,7.6312,5.9321,0.0000,0.0000,0.0000,40.077666,116.428978,43.6,0.00,157.6
24609.940,-1.9099,7.6144,5.9776,0.0000,0.0000,0.0000,40.077666,116.428978,43.6,0.00,157.6
24609.950,-1.9577,7.6073,5.9273,0.0000,0.0000,0.0000,40.077666,116.428978,43.6,0.00,157.6
24609.959,-1.9816,7.6312,5.9513,0.0000,0.0000,0.0000,40.077666,116.428978,43.6,0.00,157.6
24609.970,-2.0175,7.6479,5.9848,0.0000,0.0000,0.0000,40.077666,116.428978,43.6,0.00,157.6
24609.980,-1.9386,7.6479,5.9800,0.0000,0.0000,0.0000,40.077666,116.428978,43.6,0.00,157.6
24609.990,-1.9434,7.6240,5.9130,0.0000,0.0000,0.0000,40.077666,116.428978,43.6,0.00,157.6
24610.000,-1.9529,7.6336,6.0111,0.0000,0.0000,0.0000,40.077666,116.428978,43.6,0.00,157.6
24610.010,-1.9649,7.6432,6.1140,0.0000,0.0000,0.0000,40.077666,116.428978,43.6,0.00,157.6
24610.021,-1.9601,7.6312,6.0972,0.0000,0.0000,0.0000,40.077666,116.428978,43.6,0.00,157.6
24610.029,-1.9529,7.6312,6.0039,0.0000,0.0000,0.0000,40.077666,116.428978,43.6,0.00,157.6
24610.040,-1.9362,7.6168,5.9800,0.0000,0.0000,0.0000,40.077666,116.428978,43.6,0.00,157.6
24610.050,-1.9314,7.6551,6.0398,0.0000,0.0000,0.0000,40.077666,116.428978,43.6,0.00,157.6
24610.060,-1.9960,7.6264,5.9872,0.0000,0.0000,0.0000,40.077666,116.428978,43.6,0.00,157.6
24610.070,-1.9721,7.6264,6.0015,0.0000,0.0000,0.0000,40.077666,116.428978,43.6,0.00,157.6
24610.079,-1.8764,7.6336,5.9872,0.0000,0.0000,0.0000,40.077666,116.428978,43.6,0.00,157.6
24610.090,-1.9864,7.6240,5.9058,0.0000,0.0000,0.0000,40.077666,116.428978,43.6,0.00,157.6
24610.100,-2.0080,7.6097,5.8771,0.0000,0.0000,0.0000,40.077666,116.428978,43.6,0.00,157.6
24610.109,-2.0247,7.6025,5.8795,0.0000,0.0000,0.0000,40.077666,116.428978,43.6,0.00,157.6
24610.120,-2.0104,7.6336,5.9321,0.0000,0.0000,0.0000,40.077666,116.428978,43.6,0.00,157.6
24610.130,-1.9553,7.6288,5.9848,0.0000,0.0000,0.0000,40.077666,116.428978,43.6,0.00,157.6
24610.140,-1.9242,7.5881,6.0111,0.0000,0.0000,0.0000,40.077666,116.428978,43.6,0.00,157.6
24610.150,-1.8811,7.6216,6.0326,0.0000,0.0000,0.0000,40.077666,116.428978,43.6,0.00,157.6
24610.160,-1.9434,7.6121,6.0111,0.0000,0.0000,0.0000,40.077666,116.428978,43.6,0.00,157.6
24610.169,-1.8979,7.6336,6.0853,0.0000,0.0000,0.0000,40.077666,116.428978,43.6,0.00,157.6
24610.183,-1.9194,7.6121,6.0039,0.0000,0.0000,0.0000,40.077666,116.428978,43.6,0.00,157.6
24610.190,-1.8883,7.6264,5.9441,0.0000,0.0000,0.0000,40.077666,116.428978,43.6,0.00,157.6
24610.199,-1.9003,7.6097,5.9608,0.0000,0.0000,0.0000,40.077666,116.428978,43.6,0.00,157.6
24610.210,-1.8524,7.6767,5.9776,0.0000,0.0000,0.0000,40.077666,116.428978,43.6,0.00,157.6
24610.220,-1.9003,7.6647,5.9465,0.0000,0.0000,0.0000,40.077666,116.428978,43.6,0.00,157.6
24610.230,-1.9960,7.6288,5.9513,0.0000,0.0000,0.0000,40.077666,116.428978,43.6,0.00,157.6
24610.241,-2.0080,7.6168,5.9704,0.0000,0.0000,0.0000,40.077666,116.428978,43.6,0.00,157.6
24610.251,-2.0032,7.5809,5.9608,0.0000,0.0000,0.0000,40.077666,116.428978,43.6,0.00,157.6
24610.261,-2.0271,7.5785,5.9441,0.0000,0.0000,0.0000,40.077666,116.428978,43.6,0.00,157.6
24610.271,-1.9816,7.5785,6.0255,0.0000,0.0000,0.0000,40.077666,116.428978,43.6,0.00,157.6
24610.280,-1.9984,7.6384,6.0805,0.0000,0.0000,0.0000,40.077666,116.428978,43.6,0.00,157.6
24610.291,-2.0175,7.6384,6.0685,0.0000,0.0000,0.0000,40.077666,116.428978,43.6,0.00,157.6
24610.300,-1.9434,7.6097,6.0518,0.0000,0.0000,0.0000,40.077666,116.428978,43.6,0.00,157.6
24610.311,-1.9362,7.6264,5.9920,0.0000,0.0000,0.0000,40.077666,116.428978,43.6,0.00,157.6
24610.321,-1.9290,7.6503,6.0255,0.0000,0.0000,0.0000,40.077666,116.428978,43.6,0.00,157.6
24610.332,-1.8692,7.6479,5.9632,0.0000,0.0000,0.0000,40.077666,116.428978,43.6,0.00,157.6
24610.344,-1.8476,7.6886,5.9250,0.0000,0.0000,0.0000,40.077666,116.428978,43.6,0.00,157.6
24610.351,-1.8859,7.6168,5.8556,0.0000,0.0000,0.0000,40.077666,116.428978,43.6,0.00,157.6
24610.360,-1.9146,7.6312,5.9585,0.0000,0.0000,0.0000,40.077666,116.428978,43.6,0.00,157.6
24610.370,-1.9936,7.6121,5.9967,0.0000,0.0000,0.0000,40.077666,116.428978,43.6,0.00,157.6
24610.381,-1.9146,7.6408,6.0350,0.0000,0.0000,0.0000,40.077666,116.428978,43.6,0.00,157.6
24610.391,-1.9386,7.5833,6.0590,0.0000,0.0000,0.0000,40.077666,116.428978,43.6,0.00,157.6
24610.401,-1.9434,7.6073,6.0278,0.0000,0.0000,0.0000,40.077666,116.428978,43.6,0.00,157.6
24610.411,-1.8572,7.6360,6.1116,0.0000,0.0000,0.0000,40.077666,116.428978,43.6,0.00,157.6
24610.420,-1.9099,7.6360,6.0590,0.0000,0.0000,0.0000,40.077666,116.428978,43.6,0.00,157.6
24610.430,-1.9266,7.6719,6.0087,0.0000,0.0000,0.0000,40.077666,116.428978,43.6,0.00,157.6
24610.441,-1.9912,7.6479,5.9537,0.0000,0.0000,0.0000,40.077666,116.428978,43.6,0.00,157.6
24610.452,-1.8548,7.6288,5.8962,0.0000,0.0000,0.0000,40.077666,116.428978,43.6,0.00,157.6
24610.462,-1.8931,7.6025,5.9082,0.0000,0.0000,0.0000,40.077666,116.428978,43.6,0.00,157.6
24610.471,-1.8835,7.6168,5.9728,0.0000,0.0000,0.0000,40.077666,116.428978,43.6,0.00,157.6
24610.481,-1.8979,7.6408,6.0566,0.0000,0.0000,0.0000,40.077666,116.428978,43.6,0.00,157.6
24610.492,-1.8309,7.6336,6.0446,0.0000,0.0000,0.0000,40.077666,116.428978,43.6,0.00,157.6
24610.503,-1.9003,7.6121,6.0374,0.0000,0.0000,0.0000,40.077666,116.428978,43.6,0.00,157.6
24610.515,-1.8955,7.6144,5.9896,0.0000,0.0000,0.0000,40.077666,116.428978,43.6,0.00,157.6
24610.530,-1.8955,7.6216,5.9513,0.0000,0.0000,0.0000,40.077666,116.428978,43.6,0.00,157.6
24610.532,-1.9170,7.6432,5.9776,0.0000,0.0000,0.0000,40.077666,116.428978,43.6,0.00,157.6
24610.543,-1.9099,7.6121,5.9656,0.0000,0.0000,0.0000,40.077666,116.428978,43.6,0.00,157.6
24610.552,-1.9338,7.6240,6.0422,0.0000,0.0000,0.0000,40.077666,116.428978,43.6,0.00,157.6
24610.562,-1.9027,7.6216,6.0326,0.0000,0.0000,0.0000,40.077666,116.428978,43.6,0.00,157.6
24610.572,-1.8500,7.6432,6.1260,0.0000,0.0000,0.0000,40.077666,116.428978,43.6,0.00,157.6
24610.582,-1.7495,7.6456,6.0805,0.0000,0.0000,0.0000,40.077666,116.428978,43.6,0.00,157.6
24610.592,-1.8333,7.6456,6.0972,0.0000,0.0000,0.0000,40.077666,116.428978,43.6,0.00,157.6
24610.601,-1.8811,7.6264,6.0159,0.0000,0.0000,0.0000,40.077666,116.428978,43.6,0.00,157.6
24610.612,-1.8476,7.6264,5.9393,0.0000,0.0000,0.0000,40.077666,116.428978,43.6,0.00,157.6
24610.621,-1.8716,7.6336,6.0231,0.0000,0.0000,0.0000,40.077666,116.428978,43.6,0.00,157.6
24610.631,-1.8668,7.6144,6.1044,0.0000,0.0000,0.0000,40.077666,116.428978,43.6,0.00,157.6
24610.642,-1.8764,7.6121,6.0207,0.0000,0.0000,0.0000,40.077666,116.428978,43.6,0.00,157.6
24610.651,-1.8357,7.6312,6.1236,0.0000,0.0000,0.0000,40.077666,116.428978,43.6,0.00,157.6
24610.665,-1.8907,7.6097,5.9752,0.0000,0.0000,0.0000,40.077666,116.428978,43.6,0.00,157.6
24610.672,-1.9194,7.6599,6.0805,0.0000,0.0000,0.0000,40.077666,116.428978,43.6,0.00,157.6
24610.682,-1.9458,7.5953,6.0398,0.0000,0.0000,0.0000,40.077666,116.428978,43.6,0.00,157.6
24610.692,-1.8764,7.6073,6.0470,0.0000,0.0000,0.0000,40.077666,116.428978,43.6,0.00,157.6
24610.702,-1.8141,7.6073,5.9704,0.0000,0.0000,0.0000,40.077666,116.428978,43.6,0.00,157.6
24610.712,-1.8716,7.6073,6.0111,0.0000,0.0000,0.0000,40.077666,116.428978,43.6,0.00,157.6
24610.722,-1.7567,7.6360,6.0470,0.0000,0.0000,0.0000,40.077666,116.428978,43.6,0.00,157.6
24610.732,-1.8405,7.6575,6.0757,0.0000,0.0000,0.0000,40.077666,116.428978,43.6,0.00,157.6
24610.742,-1.8333,7.6144,6.0326,0.0000,0.0000,0.0000,40.077666,116.428978,43.6,0.00,157.6
24610.752,-1.9003,7.6049,6.0614,0.0000,0.0000,0.0000,40.077666,116.428978,43.6,0.00,157.6
24610.762,-1.9170,7.6121,5.9872,0.0000,0.0000,0.0000,40.077666,116.428978,43.6,0.00,157.6
24610.772,-1.8931,7.6144,5.9154,0.0000,0.0000,0.0000,40.077666,116.428978,43.6,0.00,157.6
24610.783,-1.8046,7.6288,5.9728,0.0000,0.0000,0.0000,40.077666,116.428978,43.6,0.00,157.6
24610.792,-1.7759,7.6336,6.0374,0.0000,0.0000,0.0000,40.077666,116.428978,43.6,0.00,157.6
24610.803,-1.8644,7.6073,6.1044,0.0000,0.0000,0.0000,40.077666,116.428978,43.6,0.00,157.6
24610.813,-1.7830,7.6288,6.1906,0.0000,0.0000,0.0000,40.077666,116.428978,43.6,0.00,157.6
24610.825,-1.7495,7.6025,6.2289,0.0000,0.0000,0.0000,40.077666,116.428978,43.6,0.00,157.6
24610.833,-1.9051,7.5953,6.0566,0.0000,0.0000,0.0000,40.077666,116.428978,43.6,0.00,157.6
24610.843,-1.8261,7.6288,6.0494,0.0000,0.0000,0.0000,40.077666,116.428978,43.6,0.00,157.6
24610.853,-1.8117,7.6121,5.9632,0.0000,0.0000,0.0000,40.077666,116.428978,43.6,0.00,157.6
24610.863,-1.8381,7.6336,5.9991,0.0000,0.0000,0.0000,40.077666,116.428978,43.6,0.00,157.6
24610.873,-1.7998,7.6240,5.9178,0.0000,0.0000,0.0000,40.077666,116.428978,43.6,0.00,157.6
24610.882,-1.8261,7.6121,5.9465,0.0000,0.0000,0.0000,40.077666,116.428978,43.6,0.00,157.6
24610.893,-1.8309,7.6264,6.0518,0.0000,0.0000,0.0000,40.077666,116.428978,43.6,0.00,157.6
24610.902,-1.7663,7.5666,6.0661,0.0000,0.0000,0.0000,40.077666,116.428978,43.6,0.00,157.6
24610.912,-1.8189,7.5714,6.0637,0.0000,0.0000,0.0000,40.077666,116.428978,43.6,0.00,157.6
24610.923,-1.7591,7.6049,6.0566,0.0000,0.0000,0.0000,40.077666,116.428978,43.6,0.00,157.6
24610.933,-1.8237,7.6360,6.0949,0.0000,0.0000,0.0000,40.077666,116.428978,43.6,0.00,157.6
24610.943,-1.8261,7.5929,6.0733,0.0000,0.0000,0.0000,40.077666,116.428978,43.6,0.00,157.6
24610.953,-1.8644,7.6360,5.9585,0.0000,0.0000,0.0000,40.077666,116.428978,43.6,0.00,157.6
24610.964,-1.8429,7.6360,5.9273,0.0000,0.0000,0.0000,40.077666,116.428978,43.6,0.00,157.6
24610.972,-1.7208,7.6216,5.9130,0.0000,0.0000,0.0000,40.077666,116.428978,43.6,0.00,157.6
24610.985,-1.5724,7.6958,5.9561,0.0000,0.0000,0.0000,40.077666,116.428978,43.6,0.00,157.6
24610.993,-1.5437,7.6121,5.9896,0.0000,0.0000,0.0000,40.077666,116.428978,43.6,0.00,157.6
24611.003,-1.7017,7.6168,6.0972,0.0000,0.0000,0.0000,40.077666,116.428978,43.6,0.00,157.6
24611.013,-1.6753,7.5738,6.0853,0.0000,0.0000,0.0000,40.077666,116.428978,43.6,0.00,157.6
24611.023,-1.6059,7.5857,6.3294,0.0000,0.0000,0.0000,40.077666,116.428978,43.6,0.00,157.6
24611.033,-1.6418,7.4733,6.3629,0.0000,0.0000,0.0000,40.077666,116.428978,43.6,0.00,157.6
24611.042,-1.5964,7.5020,6.4347,0.0000,0.0000,0.0000,40.077666,116.428978,43.6,0.00,157.6
24611.053,-1.6155,7.4063,6.4179,0.0000,0.0000,0.0000,40.077666,116.428978,43.6,0.00,157.6
24611.063,-1.5318,7.4780,6.5376,0.0000,0.0000,0.0000,40.077666,116.428978,43.6,0.00,157.6
24611.072,-1.5868,7.4565,6.3389,0.0000,0.0000,0.0000,40.077666,116.428978,43.6,0.00,157.6
24611.083,-1.7112,7.4469,6.3413,0.0000,0.0000,0.0000,40.077666,116.428978,43.6,0.00,157.6
24611.093,-1.6418,7.4709,6.3796,0.0000,0.0000,0.0000,40.077666,116.428978,43.6,0.00,157.6
24611.103,-1.5342,7.3967,6.3653,0.0000,0.0000,0.0000,40.077666,116.428978,43.6,0.00,157.6
24611.114,-1.4552,7.5092,6.2456,0.0000,0.0000,0.0000,40.077666,116.428978,43.6,0.00,157.6
24611.124,-1.3403,7.5738,6.4179,0.0000,0.0000,0.0000,40.077666,116.428978,43.6,0.00,157.6
24611.133,-1.4624,7.4254,6.5376,0.0000,0.0000,0.0000,40.077666,116.428978,43.6,0.00,157.6
24611.145,-1.4169,7.1789,6.7146,0.0000,0.0000,0.0000,40.077666,116.428978,43.6,0.00,157.6
24611.154,-1.2661,6.8822,7.0951,0.0000,0.0000,0.0000,40.077666,116.428978,43.6,0.00,157.6
24611.164,-1.1154,6.7817,7.4804,0.0000,0.0000,0.0000,40.077666,116.428978,43.6,0.00,157.6
24611.174,-1.0340,6.8200,7.7987,0.0000,0.0000,0.0000,40.077666,116.428978,43.6,0.00,157.6
24611.183,-0.8593,7.0401,7.6288,0.0000,0.0000,0.0000,40.077666,116.428978,43.6,0.00,157.6
24611.193,-0.9000,7.1263,7.2602,0.0000,0.0000,0.0000,40.077666,116.428978,43.6,0.00,157.6
24611.203,-1.0125,7.3464,6.6093,0.0000,0.0000,0.0000,40.077666,116.428978,43.6,0.00,157.6
24611.214,-1.3331,7.4852,6.1690,0.0000,0.0000,0.0000,40.077666,116.428978,43.6,0.00,157.6
24611.224,-1.5796,7.4780,6.0637,0.0000,0.0000,0.0000,40.077666,116.428978,43.6,0.00,157.6
24611.234,-1.6299,7.3536,6.2169,0.0000,0.0000,0.0000,40.077666,116.428978,43.6,0.00,157.6
24611.243,-1.4002,7.0401,6.5519,0.0000,0.0000,0.0000,40.077666,116.428978,43.6,0.00,157.6
24611.254,-1.3260,6.9659,6.7481,0.0000,0.0000,0.0000,40.077666,116.428978,43.6,0.00,157.6
24611.263,-1.1991,7.0258,7.1143,0.0000,0.0000,0.0000,40.077666,116.428978,43.6,0.00,157.6
24611.274,-0.9335,7.0928,7.3153,0.0000,0.0000,0.0000,40.077666,116.428978,43.6,0.00,157.6
24611.285,-0.9263,6.9779,7.4948,0.0000,0.0000,0.0000,40.077666,116.428978,43.6,0.00,157.6
24611.294,-0.9216,6.9635,7.4182,0.0000,0.0000,0.0000,40.077666,116.428978,43.6,0.00,157.6
24611.306,-1.0699,7.0401,7.2866,0.0000,0.0000,0.0000,40.077666,116.428978,43.6,0.00,157.6
24611.314,-1.1991,7.0617,7.0401,0.0000,0.0000,0.0000,40.077666,116.428978,43.6,0.00,157.6
24611.324,-1.1226,7.0904,7.0162,0.0000,0.0000,0.0000,40.077666,116.428978,43.6,0.00,157.6
24611.335,-1.0173,7.0377,7.0425,0.0000,0.0000,0.0000,40.077666,116.428978,43.6,0.00,157.6
24611.345,-0.9766,7.0880,6.8439,0.0000,0.0000,0.0000,40.077666,116.428978,43.6,0.00,157.6
24611.355,-0.9981,7.0521,6.8415,0.0000,0.0000,0.0000,40.077666,116.428978,43.6,0.00,157.6
24611.365,-1.0005,7.0569,6.8415,0.0000,0.0000,0.0000,40.077666,116.428978,43.6,0.00,157.6
24611.374,-1.0268,7.1741,6.8128,0.0000,0.0000,0.0000,40.077666,116.428978,43.6,0.00,157.6
24611.384,-1.0699,7.3943,6.7314,0.0000,0.0000,0.0000,40.077666,116.428978,43.6,0.00,157.6
24611.395,-1.1273,7.3560,6.6309,0.0000,0.0000,0.0000,40.077666,116.428978,43.6,0.00,157.6
24611.405,-1.1465,7.2411,6.7864,0.0000,0.0000,0.0000,40.077666,116.428978,43.6,0.00,157.6
24611.415,-1.1561,7.2770,6.7960,0.0000,0.0000,0.0000,40.077666,116.428978,43.6,0.00,157.6
24611.425,-1.1991,7.3369,6.7697,0.0000,0.0000,0.0000,40.077666,116.428978,43.6,0.00,157.6
24611.434,-1.1561,7.3273,6.9133,0.0000,0.0000,0.0000,40.077666,116.428978,43.6,0.00,157.6
24611.445,-1.1082,7.2794,7.0473,0.0000,0.0000,0.0000,40.077666,116.428978,43.6,0.00,157.6
24611.454,-1.0388,7.1957,6.9635,0.0000,0.0000,0.0000,40.077666,116.428978,43.6,0.00,157.6
24611.467,-1.1920,7.2459,6.8391,0.0000,0.0000,0.0000,40.077666,116.428978,43.6,0.00,157.6
24611.475,-1.3595,7.2076,6.4371,0.0000,0.0000,0.0000,40.077666,116.428978,43.6,0.00,157.6
24611.485,-1.4743,7.3632,6.1188,0.0000,0.0000,0.0000,40.077666,116.428978,43.6,0.00,157.6
24611.495,-1.4528,7.3775,6.3007,0.0000,0.0000,0.0000,40.077666,116.428978,43.6,0.00,157.6
24611.504,-1.4672,7.3416,6.4729,0.0000,0.0000,0.0000,40.077666,116.428978,43.6,0.00,157.6
24611.515,-1.3427,7.3201,6.5830,0.0000,0.0000,0.0000,40.077666,116.428978,43.6,0.00,157.6
24611.535,-1.2350,7.3464,6.6764,0.0000,0.0000,0.0000,40.077666,116.428978,43.6,0.00,157.6
24611.535,-1.5246,7.4254,6.7362,0.0000,0.0000,0.0000,40.077666,116.428978,43.6,0.00,157.6
24611.545,-1.5533,7.3775,6.7912,0.0000,0.0000,0.0000,40.077666,116.428978,43.6,0.00,157.6
24611.555,-1.4121,7.4350,6.6261,0.0000,0.0000,0.0000,40.077666,116.428978,43.6,0.00,157.6
24611.565,-1.4504,7.3943,6.2767,0.0000,0.0000,0.0000,40.077666,116.428978,43.6,0.00,157.6
24611.575,-1.5533,7.3345,6.1355,0.0000,0.0000,0.0000,40.077666,116.428978,43.6,0.00,157.6
24611.585,-1.6083,7.3057,6.3318,0.0000,0.0000,0.0000,40.077666,116.428978,43.6,0.00,157.6
24611.594,-1.5102,7.3799,6.4347,0.0000,0.0000,0.0000,40.077666,116.428978,43.6,0.00,157.6
24611.605,-1.5389,7.4206,6.7242,0.0000,0.0000,0.0000,40.077666,116.428978,43.6,0.00,157.6
24611.615,-1.4408,7.3728,6.7625,0.0000,0.0000,0.0000,40.077666,116.428978,43.6,0.00,157.6
24611.628,-1.4384,7.3847,6.7793,0.0000,0.0000,0.0000,40.077666,116.428978,43.6,0.00,157.6
24611.635,-1.5078,7.3034,6.6524,0.0000,0.0000,0.0000,40.077666,116.428978,43.6,0.00,157.6
24611.645,-1.6251,7.3847,6.6452,0.0000,0.0000,0.0000,40.077666,116.428978,43.6,0.00,157.6
24611.655,-1.5461,7.4278,6.5423,0.0000,0.0000,0.0000,40.077666,116.428978,43.6,0.00,157.6
24611.666,-1.3619,7.4302,6.5232,0.0000,0.0000,0.0000,40.077666,116.428978,43.6,0.00,157.6
24611.676,-1.4695,7.3967,6.4969,0.0000,0.0000,0.0000,40.077666,116.428978,43.6,0.00,157.6
24611.686,-1.5772,7.3632,6.3653,0.0000,0.0000,0.0000,40.077666,116.428978,43.6,0.00,157.6
24611.696,-1.6347,7.3847,6.3198,0.0000,0.0000,0.0000,40.077666,116.428978,43.6,0.00,157.6
24611.706,-1.5916,7.4517,6.4012,0.0000,0.0000,0.0000,40.077666,116.428978,43.6,0.00,157.6
24611.716,-1.5701,7.4876,6.4586,0.0000,0.0000,0.0000,40.077666,116.428978,43.6,0.00,157.6
24611.726,-1.5318,7.4493,6.5806,0.0000,0.0000,0.0000,40.077666,116.428978,43.6,0.00,157.6
24611.736,-1.5724,7.3632,6.5806,0.0000,0.0000,0.0000,40.077666,116.428978,43.6,0.00,157.6
24611.746,-1.5653,7.3297,6.6452,0.0000,0.0000,0.0000,40.077666,116.428978,43.6,0.00,157.6
24611.756,-1.6753,7.4254,6.7122,0.0000,0.0000,0.0000,40.077666,116.428978,43.6,0.00,157.6
24611.766,-1.6131,7.5163,6.4897,0.0000,0.0000,0.0000,40.077666,116.428978,43.6,0.00,157.6
24611.776,-1.6538,7.4780,6.2983,0.0000,0.0000,0.0000,40.077666,116.428978,43.6,0.00,157.6
24611.788,-1.6610,7.3871,6.3342,0.0000,0.0000,0.0000,40.077666,116.428978,43.6,0.00,157.6
24611.796,-1.6873,7.3871,6.3868,0.0000,0.0000,0.0000,40.077666,116.428978,43.6,0.00,157.6
24611.806,-1.5892,7.4589,6.3509,0.0000,0.0000,0.0000,40.077666,116.428978,43.6,0.00,157.6
24611.816,-1.6203,7.5283,6.4825,0.0000,0.0000,0.0000,40.077666,116.428978,43.6,0.00,157.6
24611.826,-1.5916,7.4326,6.5184,0.0000,0.0000,0.0000,40.077666,116.428978,43.6,0.00,157.6
24611.835,-1.6083,7.3919,6.4562,0.0000,0.0000,0.0000,40.077666,116.428978,43.6,0.00,157.6
24611.846,-1.5844,7.4613,6.3892,0.0000,0.0000,0.0000,40.077666,116.428978,43.6,0.00,157.6
24611.856,-1.6418,7.4996,6.3365,0.0000,0.0000,0.0000,40.077666,116.428978,43.6,0.00,157.6
24611.866,-1.6586,7.4972,6.3700,0.0000,0.0000,0.0000,40.077666,116.428978,43.6,0.00,157.6
24611.876,-1.7232,7.3967,6.4538,0.0000,0.0000,0.0000,40.077666,116.428978,43.6,0.00,157.6
24611.887,-1.6442,7.4326,6.5232,0.0000,0.0000,0.0000,40.077666,116.428978,43.6,0.00,157.6
24611.897,-1.6634,7.4158,6.4490,0.0000,0.0000,0.0000,40.077666,116.428978,43.6,0.00,157.6
24611.907,-1.6347,7.4948,6.4849,0.0000,0.0000,0.0000,40.077666,116.428978,43.6,0.00,157.6
24611.917,-1.7950,7.4924,6.3940,0.0000,0.0000,0.0000,40.077666,116.428978,43.6,0.00,157.6
24611.926,-1.6155,7.4565,6.3844,0.0000,0.0000,0.0000,40.077666,116.428978,43.6,0.00,157.6
24611.937,-1.6227,7.4804,6.2983,0.0000,0.0000,0.0000,40.077666,116.428978,43.6,0.00,157.6
24611.949,-1.6682,7.4661,6.4466,0.0000,0.0000,0.0000,40.077666,116.428978,43.6,0.00,157.6
24611.957,-1.6083,7.4852,6.4777,0.0000,0.0000,0.0000,40.077666,116.428978,43.6,0.00,157.6
24611.967,-1.6921,7.4780,6.4083,0.0000,0.0000,0.0000,40.077666,116.428978,43.6,0.00,157.6
24611.977,-1.7017,7.4063,6.3437,0.0000,0.0000,0.0000,40.077666,116.428978,43.6,0.00,157.6
24611.987,-1.7447,7.4278,6.4083,0.0000,0.0000,0.0000,40.077666,116.428978,43.6,0.00,157.6
24611.997,-1.7041,7.4421,6.4682,0.0000,0.0000,0.0000,40.077666,116.428978,43.6,0.00,157.6
24612.007,-1.6634,7.4445,6.5519,0.0000,0.0000,0.0000,40.077666,116.428978,43.6,0.00,157.6
