timestamp,ax,ay,az,gx,gy,gz,mx,my,mz,lat,lng,alt,speed,bearing
3451.498,-2.6227,7.8617,5.3068,0.000000,0.000000,0.000000,0.0000,0.0000,0.0000,0.000000,0.000000,0.0,0.00,0.0
3451.503,-2.6155,7.8689,5.3379,0.000000,0.000000,0.000000,0.0000,0.0000,0.0000,0.000000,0.000000,0.0,0.00,0.0
3451.504,-2.5772,7.8545,5.4217,0.000000,0.000000,0.000000,0.0000,0.0000,0.0000,0.000000,0.000000,0.0,0.00,0.0
3451.506,-2.5700,7.8713,5.4696,0.000000,0.000000,0.000000,0.0000,0.0000,0.0000,0.000000,0.000000,0.0,0.00,0.0
3451.508,-2.5293,7.8976,5.5055,0.000000,0.000000,0.000000,0.0000,0.0000,0.0000,0.000000,0.000000,0.0,0.00,0.0
3451.513,-2.4766,7.8857,5.5869,0.000000,0.000000,0.000000,0.0000,0.0000,0.0000,0.000000,0.000000,0.0,0.00,0.0
3451.514,-2.4479,7.8521,5.5941,0.000000,0.000000,0.000000,0.0000,0.0000,0.0000,0.000000,0.000000,0.0,0.00,0.0
3451.516,-2.4527,7.8641,5.6516,0.000000,0.000000,0.000000,29.5563,-15.2618,-29.6356,0.000000,0.000000,0.0,0.00,0.0
3451.523,-2.3833,7.8330,5.6420,0.000000,0.000000,0.000000,29.5563,-15.2618,-29.6356,0.000000,0.000000,0.0,0.00,0.0
3451.524,-2.3282,7.8689,5.6851,0.000000,0.000000,0.000000,29.5563,-15.2618,-29.6356,0.000000,0.000000,0.0,0.00,0.0
3451.525,-2.3354,7.8425,5.7210,0.000000,0.000000,0.000000,29.5563,-15.2618,-29.6356,0.000000,0.000000,0.0,0.00,0.0
3451.526,-2.2731,7.8186,5.6827,0.000000,0.000000,0.000000,29.5563,-15.2618,-29.6356,0.000000,0.000000,0.0,0.00,0.0
3451.539,-2.2300,7.8593,5.7306,0.000000,0.000000,0.000000,29.5563,-15.2618,-29.6356,0.000000,0.000000,0.0,0.00,0.0
3451.541,-2.1774,7.8689,5.7234,0.000000,0.000000,0.000000,29.5563,-15.2618,-29.6356,0.000000,0.000000,0.0,0.00,0.0
3451.542,-2.0912,7.8234,5.6755,0.000000,0.000000,0.000000,29.5563,-15.2618,-29.6356,0.000000,0.000000,0.0,0.00,0.0
3451.543,-2.0816,7.8138,5.6731,0.000000,0.000000,0.000000,30.0079,-16.7740,-27.9922,0.000000,0.000000,0.0,0.00,0.0
3451.544,-2.0457,7.8378,5.6444,0.000000,0.000000,0.000000,30.0079,-16.7740,-27.9922,0.000000,0.000000,0.0,0.00,0.0
3451.545,-2.0098,7.8378,5.6731,0.000000,0.000000,0.000000,30.0079,-16.7740,-27.9922,0.000000,0.000000,0.0,0.00,0.0
3451.546,-1.9930,7.7971,5.7186,0.000000,0.000000,0.000000,30.0079,-16.7740,-27.9922,0.000000,0.000000,0.0,0.00,0.0
3451.547,-1.9451,7.7923,5.7401,0.000000,0.000000,0.000000,30.0079,-16.7740,-27.9922,0.000000,0.000000,0.0,0.00,0.0
3451.547,-1.9212,7.7947,5.7641,0.000000,0.000000,0.000000,30.0079,-16.7740,-27.9922,0.000000,0.000000,0.0,0.00,0.0
3451.551,-1.9044,7.7923,5.8048,0.000000,0.000000,0.000000,30.0079,-16.7740,-27.9922,0.000000,0.000000,0.0,0.00,0.0
3451.553,-1.8757,7.7707,5.8742,0.000000,0.000000,0.000000,30.0079,-16.7740,-27.9922,0.000000,0.000000,0.0,0.00,0.0
3451.555,-1.8589,7.7659,5.8622,0.000000,0.000000,0.000000,29.6997,-16.7831,-30.8899,0.000000,0.000000,0.0,0.00,0.0
3451.558,-1.9020,7.7707,5.9005,0.000000,0.000000,0.000000,29.6997,-16.7831,-30.8899,0.000000,0.000000,0.0,0.00,0.0
3451.561,-1.8518,7.7755,5.8886,0.000000,0.000000,0.000000,29.6997,-16.7831,-30.8899,0.000000,0.000000,0.0,0.00,0.0
3451.563,-1.8518,7.7444,5.8742,0.000000,0.000000,0.000000,29.6997,-16.7831,-30.8899,0.000000,0.000000,0.0,0.00,0.0
3451.566,-1.8709,7.7612,5.9077,0.000000,0.000000,0.000000,29.6997,-16.7831,-30.8899,0.000000,0.000000,0.0,0.00,0.0
3451.569,-1.8685,7.7276,5.9317,0.000000,0.000000,0.000000,29.6997,-16.7831,-30.8899,0.000000,0.000000,0.0,0.00,0.0
3451.570,-1.8398,7.7444,5.9053,0.000000,0.000000,0.000000,29.6997,-16.7831,-30.8899,0.000000,0.000000,0.0,0.00,0.0
3451.573,-1.7991,7.7635,5.9269,0.000000,0.000000,0.000000,29.6997,-16.7831,-30.8899,0.000000,0.000000,0.0,0.00,0.0
3451.575,-1.7799,7.8138,5.9724,0.000000,0.000000,0.000000,28.1769,-16.1911,-32.0984,0.000000,0.000000,0.0,0.00,0.0
3451.578,-1.7392,7.8018,5.9149,0.000000,0.000000,0.000000,28.1769,-16.1911,-32.0984,0.000000,0.000000,0.0,0.00,0.0
3451.581,-1.8087,7.8042,5.7473,0.000000,0.000000,0.000000,28.1769,-16.1911,-32.0984,0.000000,0.000000,0.0,0.00,0.0
3451.583,-1.8901,7.7444,5.7545,0.000000,0.000000,0.000000,28.1769,-16.1911,-32.0984,0.000000,0.000000,0.0,0.00,0.0
3451.586,-1.8422,7.7420,5.8215,0.000000,0.000000,0.000000,28.1769,-16.1911,-32.0984,0.000000,0.000000,0.0,0.00,0.0
3451.588,-1.8661,7.7228,5.8359,-0.163269,-0.131729,0.060699,28.1769,-16.1911,-32.0984,0.000000,0.000000,0.0,0.00,0.0
3451.590,-1.9547,7.7612,5.8622,-0.157944,-0.137054,0.062836,28.1769,-16.1911,-32.0984,0.000000,0.000000,0.0,0.00,0.0
3451.593,-2.0337,7.7683,5.8239,-0.150497,-0.139191,0.061768,28.1769,-16.1911,-32.0984,0.000000,0.000000,0.0,0.00,0.0
3451.595,-1.9906,7.7444,5.8287,-0.148361,-0.143448,0.058563,29.6997,-16.7816,-30.5847,0.000000,0.000000,0.0,0.00,0.0
3451.598,-2.0361,7.7085,5.9580,-0.139847,-0.143448,0.062836,29.6997,-16.7816,-30.5847,0.000000,0.000000,0.0,0.00,0.0
3451.601,-2.0361,7.7396,5.9053,-0.133453,-0.140244,0.062836,29.6997,-16.7816,-30.5847,0.000000,0.000000,0.0,0.00,0.0
3451.604,-2.0313,7.7683,5.8622,-0.129181,-0.137054,0.062836,29.6997,-16.7816,-30.5847,0.000000,0.000000,0.0,0.00,0.0
3451.606,-2.0864,7.7755,5.8742,-0.125992,-0.129593,0.063889,29.6997,-16.7816,-30.5847,0.000000,0.000000,0.0,0.00,0.0
3451.608,-2.1008,7.8234,5.8431,-0.120667,-0.111481,0.064957,29.6997,-16.7816,-30.5847,0.000000,0.000000,0.0,0.00,0.0
3451.611,-2.0696,7.8066,5.7808,-0.119598,-0.105103,0.067093,29.6997,-16.7816,-30.5847,0.000000,0.000000,0.0,0.00,0.0
3451.613,-2.0696,7.7659,5.6779,-0.117477,-0.100830,0.069229,29.6997,-16.7816,-30.5847,0.000000,0.000000,0.0,0.00,0.0
3451.616,-2.0648,7.8258,5.6324,-0.115341,-0.092316,0.068161,29.8523,-16.6290,-30.7343,0.000000,0.000000,0.0,0.00,0.0
3451.619,-2.0984,7.7899,5.6228,-0.110016,-0.089111,0.068161,29.8523,-16.6290,-30.7343,0.000000,0.000000,0.0,0.00,0.0
3451.621,-2.1223,7.8138,5.6085,-0.108948,-0.091248,0.071350,29.8523,-16.6290,-30.7343,0.000000,0.000000,0.0,0.00,0.0
3451.624,-2.1558,7.8497,5.5414,-0.112137,-0.090179,0.071350,29.8523,-16.6290,-30.7343,0.000000,0.000000,0.0,0.00,0.0
3451.626,-2.1199,7.8018,5.5175,-0.112137,-0.094437,0.072418,29.8523,-16.6290,-30.7343,0.000000,0.000000,0.0,0.00,0.0
3451.628,-2.0936,7.8090,5.5318,-0.110016,-0.096573,0.074554,29.8523,-16.6290,-30.7343,0.000000,0.000000,0.0,0.00,0.0
3451.631,-2.1079,7.7971,5.4983,-0.110016,-0.100830,0.074554,29.8523,-16.6290,-30.7343,0.000000,0.000000,0.0,0.00,0.0
3451.634,-2.0720,7.7971,5.5247,-0.114273,-0.106155,0.074554,28.6316,-17.2470,-30.5969,0.000000,0.000000,0.0,0.00,0.0
3451.636,-2.0936,7.7516,5.4864,-0.116409,-0.106155,0.075607,28.6316,-17.2470,-30.5969,0.000000,0.000000,0.0,0.00,0.0
3451.638,-2.0912,7.7588,5.4959,-0.117477,-0.110428,0.080933,28.6316,-17.2470,-30.5969,0.000000,0.000000,0.0,0.00,0.0
3451.641,-2.1175,7.7564,5.5079,-0.119598,-0.113617,0.082001,28.6316,-17.2470,-30.5969,0.000000,0.000000,0.0,0.00,0.0
3451.643,-2.1582,7.7803,5.4887,-0.119598,-0.116806,0.080933,28.6316,-17.2470,-30.5969,0.000000,0.000000,0.0,0.00,0.0
3451.646,-2.1271,7.8378,5.5079,-0.123856,-0.116806,0.084137,28.6316,-17.2470,-30.5969,0.000000,0.000000,0.0,0.00,0.0
3451.648,-2.1151,7.8234,5.4887,-0.125992,-0.118942,0.085205,28.6316,-17.2470,-30.5969,0.000000,0.000000,0.0,0.00,0.0
3451.651,-2.1606,7.8018,5.4528,-0.128128,-0.115753,0.083069,28.6316,-17.2470,-30.5969,0.000000,0.000000,0.0,0.00,0.0
3451.654,-2.1534,7.7875,5.4552,-0.131317,-0.123199,0.087326,27.4078,-18.3197,-29.8599,0.000000,0.000000,0.0,0.00,0.0
3451.656,-2.1367,7.8449,5.4959,-0.134521,-0.123199,0.090530,27.4078,-18.3197,-29.8599,0.000000,0.000000,0.0,0.00,0.0
3451.659,-2.1750,7.8378,5.4720,-0.135574,-0.121078,0.089462,27.4078,-18.3197,-29.8599,0.000000,0.000000,0.0,0.00,0.0
3451.661,-2.1798,7.8234,5.4528,-0.139847,-0.124268,0.092651,27.4078,-18.3197,-29.8599,0.000000,0.000000,0.0,0.00,0.0
3451.664,-2.2157,7.7995,5.4456,-0.146225,-0.121078,0.093719,27.4078,-18.3197,-29.8599,0.000000,0.000000,0.0,0.00,0.0
3451.667,-2.1846,7.8354,5.4504,-0.147293,-0.124268,0.096924,27.4078,-18.3197,-29.8599,0.000000,0.000000,0.0,0.00,0.0
3451.671,-2.2133,7.7516,5.4217,-0.150497,-0.131729,0.100113,27.4078,-18.3197,-29.8599,0.000000,0.000000,0.0,0.00,0.0
3451.672,-2.2707,7.7779,5.3978,-0.150497,-0.131729,0.100113,27.4078,-18.3197,-29.8599,0.000000,0.000000,0.0,0.00,0.0
3451.673,-2.2253,7.7635,5.3786,-0.156891,-0.138123,0.103317,27.8687,-17.2531,-30.2933,0.000000,0.000000,0.0,0.00,0.0
3451.676,-2.2253,7.7612,5.4576,-0.161148,-0.142380,0.107574,27.8687,-17.2531,-30.2933,0.000000,0.000000,0.0,0.00,0.0
3451.678,-2.2300,7.7276,5.4361,-0.164337,-0.142380,0.108643,27.8687,-17.2531,-30.2933,0.000000,0.000000,0.0,0.00,0.0
3451.681,-2.2133,7.7157,5.4768,-0.167542,-0.145569,0.111832,27.8687,-17.2531,-30.2933,0.000000,0.000000,0.0,0.00,0.0
3451.684,-2.2372,7.7827,5.4648,-0.169662,-0.147705,0.117157,27.8687,-17.2531,-30.2933,0.000000,0.000000,0.0,0.00,0.0
3451.686,-2.2229,7.7755,5.4385,-0.174988,-0.146637,0.121414,27.8687,-17.2531,-30.2933,0.000000,0.000000,0.0,0.00,0.0
3451.688,-2.1870,7.7204,5.4073,-0.180313,-0.146637,0.123550,27.8687,-17.2531,-30.2933,0.000000,0.000000,0.0,0.00,0.0
3451.691,-2.1606,7.7180,5.3978,-0.183517,-0.145569,0.128876,27.8687,-17.2531,-30.2933,0.000000,0.000000,0.0,0.00,0.0
3451.693,-2.1319,7.7540,5.4026,-0.186707,-0.143448,0.132080,26.3519,-15.4449,-31.6254,0.000000,0.000000,0.0,0.00,0.0
3451.696,-2.1031,7.7348,5.3882,-0.190979,-0.146637,0.136337,26.3519,-15.4449,-31.6254,0.000000,0.000000,0.0,0.00,0.0
3451.699,-2.0936,7.8066,5.3714,-0.195236,-0.146637,0.139526,26.3519,-15.4449,-31.6254,0.000000,0.000000,0.0,0.00,0.0
3451.701,-2.0960,7.7612,5.3858,-0.202698,-0.145569,0.142731,26.3519,-15.4449,-31.6254,0.000000,0.000000,0.0,0.00,0.0
3451.703,-2.0768,7.7755,5.4456,-0.206955,-0.143448,0.140594,26.3519,-15.4449,-31.6254,0.000000,0.000000,0.0,0.00,0.0
3451.707,-2.0193,7.7564,5.4193,-0.212280,-0.143448,0.143784,26.3519,-15.4449,-31.6254,0.000000,0.000000,0.0,0.00,0.0
3451.709,-2.0217,7.7300,5.3523,-0.217606,-0.144516,0.148056,26.3519,-15.4449,-31.6254,0.000000,0.000000,0.0,0.00,0.0
3451.711,-1.9763,7.6965,5.3714,-0.222931,-0.147705,0.149124,26.3519,-15.4449,-31.6254,0.000000,0.000000,0.0,0.00,0.0
3451.714,-1.9523,7.6702,5.3858,-0.230392,-0.144516,0.150177,28.7872,-16.6382,-30.4306,0.000000,0.000000,0.0,0.00,0.0
3451.716,-1.9403,7.7013,5.3882,-0.236786,-0.142380,0.149124,28.7872,-16.6382,-30.4306,0.000000,0.000000,0.0,0.00,0.0
3451.719,-1.9260,7.6582,5.3978,-0.244232,-0.146637,0.150177,28.7872,-16.6382,-30.4306,0.000000,0.000000,0.0,0.00,0.0
3451.721,-1.9427,7.6797,5.4050,-0.246368,-0.148773,0.149124,28.7872,-16.6382,-30.4306,0.000000,0.000000,0.0,0.00,0.0
3451.724,-1.8853,7.6510,5.4265,-0.255951,-0.148773,0.146988,28.7872,-16.6382,-30.4306,0.000000,0.000000,0.0,0.00,0.0
3451.726,-1.8829,7.6343,5.4385,-0.265549,-0.150894,0.150177,28.7872,-16.6382,-30.4306,0.000000,0.000000,0.0,0.00,0.0
3451.729,-1.8757,7.6869,5.4504,-0.270874,-0.153030,0.149124,28.7872,-16.6382,-30.4306,0.000000,0.000000,0.0,0.00,0.0
3451.731,-1.9092,7.6845,5.5031,-0.272995,-0.154099,0.146988,28.7872,-16.6382,-30.4306,0.000000,0.000000,0.0,0.00,0.0
3451.734,-1.8877,7.6654,5.5510,-0.280457,-0.157288,0.148056,27.8732,-16.4917,-29.8187,0.000000,0.000000,0.0,0.00,0.0
3451.737,-1.8685,7.6726,5.5558,-0.285782,-0.159424,0.149124,27.8732,-16.4917,-29.8187,0.000000,0.000000,0.0,0.00,0.0
3451.739,-1.8398,7.6175,5.6085,-0.291107,-0.159424,0.144852,27.8732,-16.4917,-29.8187,0.000000,0.000000,0.0,0.00,0.0
3451.742,-1.8111,7.6295,5.6899,-0.294296,-0.161560,0.145920,27.8732,-16.4917,-29.8187,0.000000,0.000000,0.0,0.00,0.0
3451.744,-1.8637,7.6510,5.6899,-0.297501,-0.161560,0.146988,27.8732,-16.4917,-29.8187,0.000000,0.000000,0.0,0.00,0.0
3451.747,-1.8446,7.6917,5.7258,-0.302826,-0.164749,0.144852,27.8732,-16.4917,-29.8187,0.000000,0.000000,0.0,0.00,0.0
3451.749,-1.8805,7.6869,5.7330,-0.304962,-0.166885,0.146988,27.8732,-16.4917,-29.8187,0.000000,0.000000,0.0,0.00,0.0
3451.752,-1.8877,7.6582,5.8359,-0.308151,-0.172211,0.149124,27.8732,-16.4917,-29.8187,0.000000,0.000000,0.0,0.00,0.0
3451.754,-1.8637,7.6199,5.8120,-0.311356,-0.174332,0.145920,28.0319,-14.8239,-32.2205,0.000000,0.000000,0.0,0.00,0.0
3451.757,-1.8877,7.6414,5.8120,-0.314545,-0.172211,0.144852,28.0319,-14.8239,-32.2205,0.000000,0.000000,0.0,0.00,0.0
3451.759,-1.8829,7.6774,5.8886,-0.315613,-0.177536,0.145920,28.0319,-14.8239,-32.2205,0.000000,0.000000,0.0,0.00,0.0
3451.762,-1.8901,7.6199,5.9173,-0.316681,-0.178604,0.146988,28.0319,-14.8239,-32.2205,0.000000,0.000000,0.0,0.00,0.0
3451.764,-1.9523,7.6438,5.9077,-0.315613,-0.179657,0.150177,28.0319,-14.8239,-32.2205,0.000000,0.000000,0.0,0.00,0.0
3451.768,-1.9332,7.6343,5.9125,-0.317734,-0.184982,0.152313,28.0319,-14.8239,-32.2205,0.000000,0.000000,0.0,0.00,0.0
3451.769,-1.9140,7.6510,5.9700,-0.317734,-0.188187,0.151245,28.0319,-14.8239,-32.2205,0.000000,0.000000,0.0,0.00,0.0
3451.772,-1.9092,7.5840,6.0179,-0.314545,-0.189255,0.154449,28.0319,-14.8239,-32.2205,0.000000,0.000000,0.0,0.00,0.0
3451.774,-1.8996,7.5672,5.9939,-0.311356,-0.192444,0.156570,26.5030,-15.5975,-32.5439,0.000000,0.000000,0.0,0.00,0.0
3451.777,-1.8949,7.5792,6.0538,-0.308151,-0.199905,0.159775,26.5030,-15.5975,-32.5439,0.000000,0.000000,0.0,0.00,0.0
3451.779,-1.8613,7.5600,6.0514,-0.304962,-0.200974,0.162964,26.5030,-15.5975,-32.5439,0.000000,0.000000,0.0,0.00,0.0
3451.782,-1.8111,7.5553,6.0634,-0.300690,-0.206299,0.161896,26.5030,-15.5975,-32.5439,0.000000,0.000000,0.0,0.00,0.0
3451.786,-1.7823,7.5505,6.1136,-0.296432,-0.208420,0.162964,26.5030,-15.5975,-32.5439,0.000000,0.000000,0.0,0.00,0.0
3451.787,-1.7799,7.6007,6.1112,-0.295364,-0.215881,0.166168,26.5030,-15.5975,-32.5439,0.000000,0.000000,0.0,0.00,0.0
3451.790,-1.7416,7.5768,6.1017,-0.292175,-0.214813,0.170425,26.5030,-15.5975,-32.5439,0.000000,0.000000,0.0,0.00,0.0
3451.793,-1.6866,7.5840,6.1017,-0.290039,-0.215881,0.170425,26.5030,-15.5975,-32.5439,0.000000,0.000000,0.0,0.00,0.0
3451.794,-1.6985,7.6007,6.1926,-0.286850,-0.222275,0.172546,27.7206,-16.6458,-30.1270,0.000000,0.000000,0.0,0.00,0.0
3451.797,-1.6842,7.5648,6.2094,-0.285782,-0.219086,0.169357,27.7206,-16.6458,-30.1270,0.000000,0.000000,0.0,0.00,0.0
3451.799,-1.6530,7.5265,6.2238,-0.280457,-0.218018,0.167221,27.7206,-16.6458,-30.1270,0.000000,0.000000,0.0,0.00,0.0
3451.802,-1.6530,7.5098,6.2309,-0.277252,-0.215881,0.172546,27.7206,-16.6458,-30.1270,0.000000,0.000000,0.0,0.00,0.0
3451.804,-1.6267,7.4978,6.2956,-0.271927,-0.210556,0.167221,27.7206,-16.6458,-30.1270,0.000000,0.000000,0.0,0.00,0.0
3451.807,-1.6339,7.4619,6.2501,-0.269806,-0.203094,0.166168,27.7206,-16.6458,-30.1270,0.000000,0.000000,0.0,0.00,0.0
3451.809,-1.6004,7.4212,6.2309,-0.262344,-0.193512,0.169357,27.7206,-16.6458,-30.1270,0.000000,0.000000,0.0,0.00,0.0
3451.812,-1.5956,7.4307,6.2238,-0.259155,-0.191376,0.168289,27.7206,-16.6458,-30.1270,0.000000,0.000000,0.0,0.00,0.0
3451.814,-1.5716,7.4475,6.2357,-0.252762,-0.187119,0.171494,27.2705,-14.8300,-31.7627,0.000000,0.000000,0.0,0.00,0.0
3451.817,-1.5525,7.4331,6.2070,-0.244232,-0.183929,0.171494,27.2705,-14.8300,-31.7627,0.000000,0.000000,0.0,0.00,0.0
3451.820,-1.5118,7.4284,6.2238,-0.241043,-0.180725,0.171494,27.2705,-14.8300,-31.7627,0.000000,0.000000,0.0,0.00,0.0
3451.824,-1.4447,7.4140,6.2501,-0.232513,-0.167938,0.170425,27.2705,-14.8300,-31.7627,0.000000,0.000000,0.0,0.00,0.0
3451.825,-1.4184,7.4188,6.2070,-0.227188,-0.164749,0.168289,27.2705,-14.8300,-31.7627,0.000000,0.000000,0.0,0.00,0.0
3451.827,-1.4280,7.4595,6.1902,-0.227188,-0.159424,0.170425,27.2705,-14.8300,-31.7627,0.000000,0.000000,0.0,0.00,0.0
3451.829,-1.3801,7.4786,6.2190,-0.220795,-0.150894,0.169357,27.2705,-14.8300,-31.7627,0.000000,0.000000,0.0,0.00,0.0
3451.833,-1.3274,7.4164,6.1639,-0.218674,-0.142380,0.167221,27.2705,-14.8300,-31.7627,0.000000,0.000000,0.0,0.00,0.0
3451.836,-1.2819,7.4260,6.1639,-0.216537,-0.141312,0.164032,27.1179,-14.6805,-32.6752,0.000000,0.000000,0.0,0.00,0.0
3451.837,-1.2724,7.4619,6.1663,-0.219742,-0.138123,0.161896,27.1179,-14.6805,-32.6752,0.000000,0.000000,0.0,0.00,0.0
3451.840,-1.2532,7.4571,6.1543,-0.215469,-0.130661,0.155502,27.1179,-14.6805,-32.6752,0.000000,0.000000,0.0,0.00,0.0
3451.843,-1.2365,7.4116,6.1543,-0.212280,-0.124268,0.152313,27.1179,-14.6805,-32.6752,0.000000,0.000000,0.0,0.00,0.0
3451.844,-1.2149,7.4499,6.1639,-0.215469,-0.122147,0.143784,27.1179,-14.6805,-32.6752,0.000000,0.000000,0.0,0.00,0.0
3451.849,-1.2556,7.4116,6.1831,-0.216537,-0.123199,0.137405,27.1179,-14.6805,-32.6752,0.000000,0.000000,0.0,0.00,0.0
3451.850,-1.2891,7.4643,6.1591,-0.216537,-0.118942,0.134201,27.1179,-14.6805,-32.6752,0.000000,0.000000,0.0,0.00,0.0
3451.852,-1.2747,7.4523,6.1328,-0.216537,-0.117874,0.129944,27.1179,-14.6805,-32.6752,0.000000,0.000000,0.0,0.00,0.0
3451.855,-1.2795,7.3781,6.2190,-0.215469,-0.122147,0.123550,25.5890,-15.4541,-33.1512,0.000000,0.000000,0.0,0.00,0.0
3451.858,-1.3107,7.3709,6.2238,-0.214417,-0.120010,0.118225,25.5890,-15.4541,-33.1512,0.000000,0.000000,0.0,0.00,0.0
3451.859,-1.3250,7.3829,6.1974,-0.213348,-0.120010,0.115036,25.5890,-15.4541,-33.1512,0.000000,0.000000,0.0,0.00,0.0
3451.862,-1.3394,7.3613,6.1687,-0.213348,-0.126404,0.109695,25.5890,-15.4541,-33.1512,0.000000,0.000000,0.0,0.00,0.0
3451.865,-1.3729,7.3541,6.2717,-0.213348,-0.125336,0.105438,25.5890,-15.4541,-33.1512,0.000000,0.000000,0.0,0.00,0.0
3451.868,-1.3514,7.3948,6.2980,-0.210144,-0.125336,0.104370,25.5890,-15.4541,-33.1512,0.000000,0.000000,0.0,0.00,0.0
3451.870,-1.3442,7.3805,6.3507,-0.208023,-0.124268,0.100113,25.5890,-15.4541,-33.1512,0.000000,0.000000,0.0,0.00,0.0
3451.873,-1.3562,7.3661,6.3339,-0.206955,-0.122147,0.095856,25.5890,-15.4541,-33.1512,0.000000,0.000000,0.0,0.00,0.0
3451.875,-1.3370,7.3446,6.3698,-0.205887,-0.117874,0.092651,26.9608,-15.2908,-33.2993,0.000000,0.000000,0.0,0.00,0.0
3451.877,-1.3394,7.3613,6.3459,-0.202698,-0.111481,0.090530,26.9608,-15.2908,-33.2993,0.000000,0.000000,0.0,0.00,0.0
3451.880,-1.3226,7.3398,6.3123,-0.196304,-0.106155,0.088394,26.9608,-15.2908,-33.2993,0.000000,0.000000,0.0,0.00,0.0
3451.883,-1.3514,7.3876,6.3818,-0.195236,-0.104034,0.085205,26.9608,-15.2908,-33.2993,0.000000,0.000000,0.0,0.00,0.0
3451.885,-1.3418,7.3805,6.3938,-0.193100,-0.102966,0.083069,26.9608,-15.2908,-33.2993,0.000000,0.000000,0.0,0.00,0.0
3451.888,-1.3729,7.3972,6.3818,-0.188843,-0.104034,0.082001,26.9608,-15.2908,-33.2993,0.000000,0.000000,0.0,0.00,0.0
3451.890,-1.3897,7.4116,6.4105,-0.184586,-0.104034,0.077744,26.9608,-15.2908,-33.2993,0.000000,0.000000,0.0,0.00,0.0
3451.893,-1.3466,7.3924,6.3985,-0.180313,-0.104034,0.075607,26.9608,-15.2908,-33.2993,0.000000,0.000000,0.0,0.00,0.0
3451.895,-1.3993,7.3733,6.4153,-0.177124,-0.106155,0.075607,26.0483,-15.1459,-32.6859,0.000000,0.000000,0.0,0.00,0.0
3451.897,-1.3873,7.3637,6.4464,-0.172867,-0.102966,0.072418,26.0483,-15.1459,-32.6859,0.000000,0.000000,0.0,0.00,0.0
3451.900,-1.4016,7.3661,6.4704,-0.168610,-0.104034,0.071350,26.0483,-15.1459,-32.6859,0.000000,0.000000,0.0,0.00,0.0
3451.903,-1.3945,7.3805,6.4919,-0.164337,-0.099762,0.070282,26.0483,-15.1459,-32.6859,0.000000,0.000000,0.0,0.00,0.0
3451.907,-1.4280,7.3470,6.4871,-0.162216,-0.100830,0.068161,26.0483,-15.1459,-32.6859,0.000000,0.000000,0.0,0.00,0.0
3451.908,-1.4424,7.3422,6.5159,-0.157944,-0.099762,0.061768,26.0483,-15.1459,-32.6859,0.000000,0.000000,0.0,0.00,0.0
3451.911,-1.4471,7.3613,6.5182,-0.149429,-0.099762,0.062836,26.0483,-15.1459,-32.6859,0.000000,0.000000,0.0,0.00,0.0
3451.913,-1.4328,7.3637,6.4584,-0.143036,-0.097641,0.063889,26.0483,-15.1459,-32.6859,0.000000,0.000000,0.0,0.00,0.0
3451.915,-1.4591,7.3876,6.5206,-0.137711,-0.100830,0.061768,26.9653,-14.8315,-31.4590,0.000000,0.000000,0.0,0.00,0.0
3451.918,-1.4424,7.3613,6.5182,-0.130249,-0.100830,0.061768,26.9653,-14.8315,-31.4590,0.000000,0.000000,0.0,0.00,0.0
3451.921,-1.4639,7.3709,6.5566,-0.125992,-0.100830,0.061768,26.9653,-14.8315,-31.4590,0.000000,0.000000,0.0,0.00,0.0
3451.923,-1.4184,7.3637,6.5685,-0.119598,-0.104034,0.061768,26.9653,-14.8315,-31.4590,0.000000,0.000000,0.0,0.00,0.0
3451.926,-1.4615,7.3589,6.5254,-0.110016,-0.107224,0.060699,26.9653,-14.8315,-31.4590,0.000000,0.000000,0.0,0.00,0.0
3451.928,-1.4711,7.3302,6.5470,-0.099365,-0.105103,0.060699,26.9653,-14.8315,-31.4590,0.000000,0.000000,0.0,0.00,0.0
3451.931,-1.4519,7.3278,6.5398,-0.094040,-0.100830,0.062836,26.9653,-14.8315,-31.4590,0.000000,0.000000,0.0,0.00,0.0
3451.934,-1.4400,7.2799,6.5278,-0.088715,-0.098709,0.063889,26.9653,-14.8315,-31.4590,0.000000,0.000000,0.0,0.00,0.0
3451.935,-1.4160,7.2895,6.4967,-0.086578,-0.094437,0.066025,25.4395,-15.3015,-31.7749,0.000000,0.000000,0.0,0.00,0.0
3451.938,-1.3921,7.3350,6.4895,-0.074860,-0.091248,0.063889,25.4395,-15.3015,-31.7749,0.000000,0.000000,0.0,0.00,0.0
3451.941,-1.3849,7.3517,6.4536,-0.067398,-0.086990,0.060699,25.4395,-15.3015,-31.7749,0.000000,0.000000,0.0,0.00,0.0
3451.944,-1.3681,7.3589,6.4871,-0.066330,-0.086990,0.062836,25.4395,-15.3015,-31.7749,0.000000,0.000000,0.0,0.00,0.0
3451.946,-1.3418,7.3230,6.4752,-0.058884,-0.079529,0.064957,25.4395,-15.3015,-31.7749,0.000000,0.000000,0.0,0.00,0.0
3451.948,-1.3203,7.3038,6.3961,-0.049286,-0.075272,0.061768,25.4395,-15.3015,-31.7749,0.000000,0.000000,0.0,0.00,0.0
3451.951,-1.2987,7.3110,6.3195,-0.049286,-0.074203,0.061768,25.4395,-15.3015,-31.7749,0.000000,0.000000,0.0,0.00,0.0
3451.953,-1.2939,7.3254,6.2908,-0.046097,-0.066742,0.059631,25.4395,-15.3015,-31.7749,0.000000,0.000000,0.0,0.00,0.0
3451.955,-1.3179,7.3565,6.2884,-0.042908,-0.062485,0.055374,26.8082,-15.7455,-31.6315,0.000000,0.000000,0.0,0.00,0.0
3451.958,-1.2867,7.3948,6.2836,-0.038635,-0.060349,0.056442,26.8082,-15.7455,-31.6315,0.000000,0.000000,0.0,0.00,0.0
3451.961,-1.2628,7.3613,6.2166,-0.034378,-0.055023,0.054306,26.8082,-15.7455,-31.6315,0.000000,0.000000,0.0,0.00,0.0
3451.963,-1.2388,7.3350,6.2381,-0.035446,-0.052902,0.053238,26.8082,-15.7455,-31.6315,0.000000,0.000000,0.0,0.00,0.0
3451.965,-1.2628,7.4212,6.2501,-0.036514,-0.048630,0.050049,26.8082,-15.7455,-31.6315,0.000000,0.000000,0.0,0.00,0.0
3451.969,-1.2508,7.4331,6.2166,-0.039703,-0.040115,0.047913,26.8082,-15.7455,-31.6315,0.000000,0.000000,0.0,0.00,0.0
3451.971,-1.2412,7.3948,6.1950,-0.039703,-0.035858,0.043655,26.8082,-15.7455,-31.6315,0.000000,0.000000,0.0,0.00,0.0
3451.973,-1.2388,7.3853,6.2286,-0.039703,-0.030533,0.041519,27.1103,-16.2003,-32.7087,0.000000,0.000000,0.0,0.00,0.0
3451.975,-1.2963,7.3876,6.2214,-0.039703,-0.029465,0.039398,27.1103,-16.2003,-32.7087,0.000000,0.000000,0.0,0.00,0.0
3451.978,-1.3107,7.3589,6.1974,-0.042908,-0.025208,0.035141,27.1103,-16.2003,-32.7087,0.000000,0.000000,0.0,0.00,0.0
3451.982,-1.2652,7.3206,6.1902,-0.043961,-0.020935,0.029800,27.1103,-16.2003,-32.7087,0.000000,0.000000,0.0,0.00,0.0
3451.983,-1.2915,7.3062,6.2357,-0.046097,-0.022003,0.026611,27.1103,-16.2003,-32.7087,0.000000,0.000000,0.0,0.00,0.0
3451.987,-1.3418,7.3254,6.2309,-0.045029,-0.023071,0.026611,27.1103,-16.2003,-32.7087,0.000000,0.000000,0.0,0.00,0.0
3451.988,-1.3609,7.3254,6.2118,-0.047165,-0.026260,0.026611,27.1103,-16.2003,-32.7087,0.000000,0.000000,0.0,0.00,0.0
3451.991,-1.3801,7.3134,6.2764,-0.048233,-0.024139,0.023422,27.1103,-16.2003,-32.7087,0.000000,0.000000,0.0,0.00,0.0
3451.996,-1.3681,7.3206,6.3052,-0.047165,-0.023071,0.024475,27.8748,-15.4343,-32.6920,0.000000,0.000000,0.0,0.00,0.0
3451.997,-1.3514,7.3517,6.2693,-0.046097,-0.019867,0.023422,27.8748,-15.4343,-32.6920,0.000000,0.000000,0.0,0.00,0.0
3452.000,-1.3538,7.3972,6.3626,-0.047165,-0.019867,0.023422,27.8748,-15.4343,-32.6920,0.000000,0.000000,0.0,0.00,0.0
3452.001,-1.3418,7.3805,6.2740,-0.046097,-0.022003,0.020218,27.8748,-15.4343,-32.6920,0.000000,0.000000,0.0,0.00,0.0
3452.003,-1.3609,7.3565,6.3267,-0.046097,-0.018814,0.017029,27.8748,-15.4343,-32.6920,0.000000,0.000000,0.0,0.00,0.0
3452.007,-1.3921,7.3565,6.3435,-0.045029,-0.020935,0.013824,27.8748,-15.4343,-32.6920,0.000000,0.000000,0.0,0.00,0.0
3452.008,-1.4136,7.3685,6.3411,-0.043961,-0.023071,0.014893,27.8748,-15.4343,-32.6920,0.000000,0.000000,0.0,0.00,0.0
3452.011,-1.4184,7.3829,6.3722,-0.042908,-0.024139,0.011703,27.8748,-15.4343,-32.6920,0.000000,0.000000,0.0,0.00,0.0
3452.013,-1.4112,7.4092,6.3387,-0.039703,-0.026260,0.013824,26.0361,-17.2745,-33.4976,0.000000,0.000000,0.0,0.00,0.0
3452.015,-1.4088,7.4044,6.3459,-0.035446,-0.023071,0.014893,26.0361,-17.2745,-33.4976,0.000000,0.000000,0.0,0.00,0.0
3452.019,-1.4184,7.4092,6.3746,-0.035446,-0.018814,0.013824,26.0361,-17.2745,-33.4976,0.000000,0.000000,0.0,0.00,0.0
3452.021,-1.4208,7.4116,6.3315,-0.037582,-0.022003,0.010635,26.0361,-17.2745,-33.4976,0.000000,0.000000,0.0,0.00,0.0
3452.023,-1.4519,7.3565,6.3531,-0.036514,-0.025208,0.008499,26.0361,-17.2745,-33.4976,0.000000,0.000000,0.0,0.00,0.0
3452.026,-1.4136,7.3613,6.3890,-0.032242,-0.026260,0.007431,26.0361,-17.2745,-33.4976,0.000000,0.000000,0.0,0.00,0.0
3452.029,-1.4352,7.3302,6.3985,-0.027985,-0.023071,0.005310,26.0361,-17.2745,-33.4976,0.000000,0.000000,0.0,0.00,0.0
3452.031,-1.4304,7.3565,6.3626,-0.025864,-0.022003,0.006378,26.0361,-17.2745,-33.4976,0.000000,0.000000,0.0,0.00,0.0
3452.034,-1.4256,7.3446,6.4201,-0.023727,-0.027328,0.006378,25.8942,-15.3015,-33.6044,0.000000,0.000000,0.0,0.00,0.0
3452.037,-1.4232,7.3158,6.3507,-0.022659,-0.027328,0.008499,25.8942,-15.3015,-33.6044,0.000000,0.000000,0.0,0.00,0.0
3452.038,-1.4328,7.3230,6.3363,-0.018402,-0.024139,0.008499,25.8942,-15.3015,-33.6044,0.000000,0.000000,0.0,0.00,0.0
3452.041,-1.4639,7.3206,6.3794,-0.014145,-0.027328,0.011703,25.8942,-15.3015,-33.6044,0.000000,0.000000,0.0,0.00,0.0
3452.045,-1.4256,7.2847,6.3363,-0.013077,-0.031586,0.011703,25.8942,-15.3015,-33.6044,0.000000,0.000000,0.0,0.00,0.0
3452.046,-1.4160,7.2703,6.3411,-0.006683,-0.037979,0.012756,25.8942,-15.3015,-33.6044,0.000000,0.000000,0.0,0.00,0.0
3452.049,-1.4400,7.3302,6.3243,-0.003479,-0.032654,0.013824,25.8942,-15.3015,-33.6044,0.000000,0.000000,0.0,0.00,0.0
3452.051,-1.4280,7.3278,6.2980,-0.002426,-0.033722,0.012756,25.8942,-15.3015,-33.6044,0.000000,0.000000,0.0,0.00,0.0
3452.055,-1.3681,7.3350,6.3076,0.002899,-0.035858,0.014893,24.9786,-15.7608,-32.0908,0.000000,0.000000,0.0,0.00,0.0
3452.056,-1.3442,7.3685,6.2693,0.005035,-0.030533,0.014893,24.9786,-15.7608,-32.0908,0.000000,0.000000,0.0,0.00,0.0
3452.059,-1.3322,7.3493,6.2309,0.002899,-0.031586,0.015961,24.9786,-15.7608,-32.0908,0.000000,0.000000,0.0,0.00,0.0
3452.061,-1.3203,7.3541,6.2621,0.003967,-0.026260,0.014893,24.9786,-15.7608,-32.0908,0.000000,0.000000,0.0,0.00,0.0
3452.064,-1.2987,7.4355,6.2645,0.006104,-0.024139,0.012756,24.9786,-15.7608,-32.0908,0.000000,0.000000,0.0,0.00,0.0
3452.067,-1.3179,7.3781,6.1831,0.006104,-0.024139,0.011703,24.9786,-15.7608,-32.0908,0.000000,0.000000,0.0,0.00,0.0
3452.071,-1.3035,7.3685,6.1567,0.006104,-0.023071,0.010635,24.9786,-15.7608,-32.0908,0.000000,0.000000,0.0,0.00,0.0
3452.071,-1.3514,7.4044,6.1448,0.006104,-0.020935,0.008499,24.9786,-15.7608,-32.0908,0.000000,0.000000,0.0,0.00,0.0
3452.074,-1.3179,7.3948,6.1400,0.002899,-0.016678,0.007431,25.4395,-14.8483,-33.2901,0.000000,0.000000,0.0,0.00,0.0
3452.076,-1.3514,7.3685,6.1879,0.002899,-0.013489,0.005310,25.4395,-14.8483,-33.2901,0.000000,0.000000,0.0,0.00,0.0
3452.080,-1.3442,7.4188,6.1735,0.000778,-0.013489,0.004242,25.4395,-14.8483,-33.2901,0.000000,0.000000,0.0,0.00,0.0
3452.082,-1.3131,7.4212,6.1759,-0.002426,-0.007095,0.003174,25.4395,-14.8483,-33.2901,0.000000,0.000000,0.0,0.00,0.0
3452.084,-1.3370,7.4188,6.1184,-0.004547,-0.003891,0.001053,25.4395,-14.8483,-33.2901,0.000000,0.000000,0.0,0.00,0.0
3452.087,-1.3466,7.4212,6.1591,-0.006683,-0.001770,-0.000015,25.4395,-14.8483,-33.2901,0.000000,0.000000,0.0,0.00,0.0
3452.089,-1.3370,7.3805,6.1496,-0.010941,0.005692,-0.001083,25.4395,-14.8483,-33.2901,0.000000,0.000000,0.0,0.00,0.0
3452.092,-1.3633,7.4236,6.0993,-0.015198,0.004623,-0.002151,25.4395,-14.8483,-33.2901,0.000000,0.000000,0.0,0.00,0.0
3452.095,-1.3466,7.4547,6.0969,-0.018402,0.005692,-0.004288,27.7206,-15.8936,-33.3115,0.000000,0.000000,0.0,0.00,0.0
3452.098,-1.4064,7.3924,6.1519,-0.018402,0.007828,-0.007477,27.7206,-15.8936,-33.3115,0.000000,0.000000,0.0,0.00,0.0
3452.100,-1.4854,7.3613,6.1543,-0.020538,0.006760,-0.007477,27.7206,-15.8936,-33.3115,0.000000,0.000000,0.0,0.00,0.0
3452.103,-1.5142,7.3278,6.1232,-0.024796,0.011017,-0.008545,27.7206,-15.8936,-33.3115,0.000000,0.000000,0.0,0.00,0.0
3452.104,-1.5597,7.3206,6.0921,-0.024796,0.015274,-0.009613,27.7206,-15.8936,-33.3115,0.000000,0.000000,0.0,0.00,0.0
3452.107,-1.5621,7.3158,6.0969,-0.027985,0.014221,-0.007477,27.7206,-15.8936,-33.3115,0.000000,0.000000,0.0,0.00,0.0
3452.110,-1.5788,7.3517,6.0322,-0.033310,0.013153,-0.003220,27.7206,-15.8936,-33.3115,0.000000,0.000000,0.0,0.00,0.0
3452.112,-1.5692,7.3829,6.0370,-0.036514,0.014221,-0.003220,27.7206,-15.8936,-33.3115,0.000000,0.000000,0.0,0.00,0.0
3452.114,-1.6051,7.3996,6.0274,-0.034378,0.015274,0.001053,26.9623,-15.2893,-32.5363,0.000000,0.000000,0.0,0.00,0.0
3452.117,-1.6051,7.4044,5.9891,-0.037582,0.011017,0.005310,26.9623,-15.2893,-32.5363,0.000000,0.000000,0.0,0.00,0.0
3452.120,-1.5788,7.3972,6.0227,-0.039703,0.008896,0.005310,26.9623,-15.2893,-32.5363,0.000000,0.000000,0.0,0.00,0.0
3452.122,-1.5932,7.4140,6.0490,-0.039703,0.003555,0.004242,26.9623,-15.2893,-32.5363,0.000000,0.000000,0.0,0.00,0.0
3452.124,-1.6578,7.4451,6.0634,-0.043961,-0.001770,0.011703,26.9623,-15.2893,-32.5363,0.000000,0.000000,0.0,0.00,0.0
3452.127,-1.6411,7.4643,6.0490,-0.048233,-0.004959,0.015961,26.9623,-15.2893,-32.5363,0.000000,0.000000,0.0,0.00,0.0
3452.129,-1.6099,7.3709,6.0490,-0.052490,-0.003891,0.014893,26.9623,-15.2893,-32.5363,0.000000,0.000000,0.0,0.00,0.0
3452.132,-1.6147,7.4092,6.0729,-0.056747,-0.000702,0.014893,26.9623,-15.2893,-32.5363,0.000000,0.000000,0.0,0.00,0.0
3452.134,-1.6004,7.3829,6.1304,-0.062073,-0.003891,0.013824,27.4155,-15.7425,-33.1558,0.000000,0.000000,0.0,0.00,0.0
3452.137,-1.5214,7.3948,6.1136,-0.061005,-0.007095,0.019150,27.4155,-15.7425,-33.1558,0.000000,0.000000,0.0,0.00,0.0
3452.140,-1.5692,7.4284,6.1328,-0.063141,-0.011353,0.021286,27.4155,-15.7425,-33.1558,0.000000,0.000000,0.0,0.00,0.0
3452.142,-1.6195,7.4020,6.1855,-0.065277,-0.017746,0.023422,27.4155,-15.7425,-33.1558,0.000000,0.000000,0.0,0.00,0.0
3452.144,-1.6075,7.3853,6.2022,-0.063141,-0.023071,0.022354,27.4155,-15.7425,-33.1558,0.000000,0.000000,0.0,0.00,0.0
3452.147,-1.5597,7.3853,6.2357,-0.066330,-0.025208,0.024475,27.4155,-15.7425,-33.1558,0.000000,0.000000,0.0,0.00,0.0
3452.150,-1.5645,7.3302,6.3387,-0.066330,-0.028397,0.028748,27.4155,-15.7425,-33.1558,0.000000,0.000000,0.0,0.00,0.0
3452.152,-1.5357,7.3326,6.3100,-0.063141,-0.026260,0.031937,27.4155,-15.7425,-33.1558,0.000000,0.000000,0.0,0.00,0.0
3452.154,-1.5070,7.3541,6.3123,-0.064209,-0.029465,0.035141,26.3519,-15.4449,-31.6254,0.000000,0.000000,0.0,0.00,0.0
3452.157,-1.4926,7.3422,6.3219,-0.063141,-0.030533,0.035141,26.3519,-15.4449,-31.6254,0.000000,0.000000,0.0,0.00,0.0
3452.160,-1.4687,7.3326,6.3459,-0.061005,-0.027328,0.037262,26.3519,-15.4449,-31.6254,0.000000,0.000000,0.0,0.00,0.0
3452.162,-1.4064,7.3805,6.3674,-0.057816,-0.033722,0.038330,26.3519,-15.4449,-31.6254,0.000000,0.000000,0.0,0.00,0.0
3452.165,-1.4352,7.3948,6.3387,-0.054626,-0.032654,0.038330,26.3519,-15.4449,-31.6254,0.000000,0.000000,0.0,0.00,0.0
3452.167,-1.3993,7.3924,6.3459,-0.054626,-0.030533,0.039398,26.3519,-15.4449,-31.6254,0.000000,0.000000,0.0,0.00,0.0
3452.170,-1.3993,7.3517,6.3507,-0.050354,-0.029465,0.039398,26.3519,-15.4449,-31.6254,0.000000,0.000000,0.0,0.00,0.0
3452.172,-1.3921,7.3996,6.3100,-0.048233,-0.030533,0.040466,26.3519,-15.4449,-31.6254,0.000000,0.000000,0.0,0.00,0.0
3452.174,-1.3657,7.3637,6.3100,-0.046097,-0.030533,0.040466,27.1133,-15.1382,-33.4473,0.000000,0.000000,0.0,0.00,0.0
3452.177,-1.3825,7.3829,6.3483,-0.046097,-0.026260,0.042587,27.1133,-15.1382,-33.4473,0.000000,0.000000,0.0,0.00,0.0
3452.180,-1.3466,7.3613,6.3938,-0.041840,-0.025208,0.042587,27.1133,-15.1382,-33.4473,0.000000,0.000000,0.0,0.00,0.0
3452.183,-1.3155,7.3254,6.3195,-0.043961,-0.022003,0.041519,27.1133,-15.1382,-33.4473,0.000000,0.000000,0.0,0.00,0.0
3452.184,-1.3562,7.3182,6.3794,-0.041840,-0.018814,0.039398,27.1133,-15.1382,-33.4473,0.000000,0.000000,0.0,0.00,0.0
3452.187,-1.3418,7.3685,6.3459,-0.039703,-0.017746,0.037262,27.1133,-15.1382,-33.4473,0.000000,0.000000,0.0,0.00,0.0
3452.190,-1.3107,7.3326,6.3171,-0.038635,-0.015610,0.038330,27.1133,-15.1382,-33.4473,0.000000,0.000000,0.0,0.00,0.0
3452.192,-1.3298,7.3422,6.3531,-0.039703,-0.014542,0.038330,27.1133,-15.1382,-33.4473,0.000000,0.000000,0.0,0.00,0.0
3452.195,-1.3083,7.4236,6.3052,-0.037582,-0.010284,0.038330,25.2869,-15.1520,-32.3822,0.000000,0.000000,0.0,0.00,0.0
3452.197,-1.3035,7.3326,6.3076,-0.036514,-0.011353,0.038330,25.2869,-15.1520,-32.3822,0.000000,0.000000,0.0,0.00,0.0
3452.200,-1.3059,7.2847,6.3147,-0.034378,-0.008163,0.036194,25.2869,-15.1520,-32.3822,0.000000,0.000000,0.0,0.00,0.0
3452.203,-1.2819,7.3086,6.2549,-0.031189,-0.006027,0.036194,25.2869,-15.1520,-32.3822,0.000000,0.000000,0.0,0.00,0.0
3452.205,-1.2460,7.3062,6.3147,-0.032242,-0.004959,0.033005,25.2869,-15.1520,-32.3822,0.000000,0.000000,0.0,0.00,0.0
3452.208,-1.2532,7.2464,6.3100,-0.033310,-0.001770,0.030869,25.2869,-15.1520,-32.3822,0.000000,0.000000,0.0,0.00,0.0
3452.210,-1.2819,7.2847,6.2980,-0.033310,-0.003891,0.029800,25.2869,-15.1520,-32.3822,0.000000,0.000000,0.0,0.00,0.0
3452.213,-1.2341,7.2895,6.4105,-0.033310,-0.002823,0.028748,25.2869,-15.1520,-32.3822,0.000000,0.000000,0.0,0.00,0.0
3452.215,-1.2556,7.3182,6.2836,-0.031189,0.001434,0.026611,25.2914,-13.9359,-32.6599,0.000000,0.000000,0.0,0.00,0.0
3452.218,-1.2604,7.3038,6.2549,-0.033310,0.002502,0.023422,25.2914,-13.9359,-32.6599,0.000000,0.000000,0.0,0.00,0.0
3452.220,-1.2724,7.3446,6.3076,-0.033310,0.003555,0.024475,25.2914,-13.9359,-32.6599,0.000000,0.000000,0.0,0.00,0.0
3452.223,-1.2532,7.3086,6.3028,-0.035446,0.002502,0.017029,25.2914,-13.9359,-32.6599,0.000000,0.000000,0.0,0.00,0.0
3452.225,-1.2747,7.2847,6.3291,-0.037582,0.004623,0.012756,25.2914,-13.9359,-32.6599,0.000000,0.000000,0.0,0.00,0.0
3452.228,-1.2293,7.2751,6.3435,-0.036514,0.002502,0.011703,25.2914,-13.9359,-32.6599,0.000000,0.000000,0.0,0.00,0.0
3452.230,-1.2963,7.2943,6.3267,-0.034378,0.001434,0.010635,25.2914,-13.9359,-32.6599,0.000000,0.000000,0.0,0.00,0.0
3452.233,-1.2963,7.2847,6.2956,-0.035446,0.000366,0.008499,25.2914,-13.9359,-32.6599,0.000000,0.000000,0.0,0.00,0.0
3452.235,-1.3107,7.3038,6.3267,-0.037582,0.002502,0.007431,26.5030,-15.2954,-33.6044,0.000000,0.000000,0.0,0.00,0.0
3452.238,-1.3083,7.2871,6.3339,-0.036514,-0.002823,0.005310,26.5030,-15.2954,-33.6044,0.000000,0.000000,0.0,0.00,0.0
3452.241,-1.3274,7.2560,6.3315,-0.036514,-0.004959,0.004242,26.5030,-15.2954,-33.6044,0.000000,0.000000,0.0,0.00,0.0
3452.243,-1.3514,7.3182,6.2860,-0.039703,-0.006027,-0.001083,26.5030,-15.2954,-33.6044,0.000000,0.000000,0.0,0.00,0.0
3452.245,-1.3490,7.3015,6.3291,-0.038635,-0.003891,-0.000015,26.5030,-15.2954,-33.6044,0.000000,0.000000,0.0,0.00,0.0
3452.248,-1.3993,7.2943,6.3602,-0.036514,-0.003891,-0.002151,26.5030,-15.2954,-33.6044,0.000000,0.000000,0.0,0.00,0.0
3452.250,-1.3897,7.2871,6.3818,-0.036514,-0.002823,-0.004288,26.5030,-15.2954,-33.6044,0.000000,0.000000,0.0,0.00,0.0
3452.252,-1.4519,7.2991,6.3914,-0.034378,-0.004959,-0.001083,26.5030,-15.2954,-33.6044,0.000000,0.000000,0.0,0.00,0.0
3452.256,-1.4902,7.2871,6.3818,-0.032242,-0.007095,-0.002151,24.9771,-15.7654,-34.2255,0.000000,0.000000,0.0,0.00,0.0
3452.258,-1.5046,7.3278,6.3650,-0.034378,-0.011353,-0.002151,24.9771,-15.7654,-34.2255,0.000000,0.000000,0.0,0.00,0.0
3452.260,-1.5070,7.3541,6.3650,-0.036514,-0.012421,-0.001083,24.9771,-15.7654,-34.2255,0.000000,0.000000,0.0,0.00,0.0
3452.263,-1.4495,7.3350,6.3794,-0.031189,-0.013489,-0.001083,24.9771,-15.7654,-34.2255,0.000000,0.000000,0.0,0.00,0.0
3452.266,-1.5309,7.3278,6.3770,-0.030121,-0.012421,-0.000015,24.9771,-15.7654,-34.2255,0.000000,0.000000,0.0,0.00,0.0
3452.268,-1.5118,7.3110,6.3602,-0.031189,-0.012421,0.004242,24.9771,-15.7654,-34.2255,0.000000,0.000000,0.0,0.00,0.0
3452.271,-1.5262,7.3350,6.4105,-0.025864,-0.015610,0.005310,24.9771,-15.7654,-34.2255,0.000000,0.000000,0.0,0.00,0.0
3452.273,-1.4974,7.3613,6.3890,-0.020538,-0.014542,0.008499,24.9771,-15.7654,-34.2255,0.000000,0.000000,0.0,0.00,0.0
3452.275,-1.4974,7.3924,6.3602,-0.016266,-0.011353,0.013824,28.6423,-14.3646,-32.6660,0.000000,0.000000,0.0,0.00,0.0
3452.278,-1.5094,7.3422,6.3842,-0.014145,-0.011353,0.013824,28.6423,-14.3646,-32.6660,0.000000,0.000000,0.0,0.00,0.0
3452.281,-1.4543,7.3038,6.3842,-0.009872,-0.015610,0.017029,28.6423,-14.3646,-32.6660,0.000000,0.000000,0.0,0.00,0.0
3452.283,-1.4759,7.2943,6.3435,-0.006683,-0.012421,0.020218,28.6423,-14.3646,-32.6660,0.000000,0.000000,0.0,0.00,0.0
3452.286,-1.4783,7.3230,6.3219,-0.003479,-0.013489,0.021286,28.6423,-14.3646,-32.6660,0.000000,0.000000,0.0,0.00,0.0
3452.288,-1.4519,7.3613,6.3315,-0.002426,-0.014542,0.022354,28.6423,-14.3646,-32.6660,0.000000,0.000000,0.0,0.00,0.0
3452.291,-1.4950,7.3517,6.3315,-0.001358,-0.010284,0.024475,28.6423,-14.3646,-32.6660,0.000000,0.000000,0.0,0.00,0.0
3452.293,-1.4902,7.3948,6.2956,0.000778,-0.007095,0.028748,28.6423,-14.3646,-32.6660,0.000000,0.000000,0.0,0.00,0.0
3452.295,-1.4807,7.3398,6.3076,0.005035,-0.008163,0.029800,27.2659,-15.5899,-32.2372,0.000000,0.000000,0.0,0.00,0.0
3452.298,-1.4830,7.3254,6.3052,0.003967,-0.011353,0.029800,27.2659,-15.5899,-32.2372,0.000000,0.000000,0.0,0.00,0.0
3452.301,-1.4256,7.3206,6.2860,0.002899,-0.010284,0.035141,27.2659,-15.5899,-32.2372,0.000000,0.000000,0.0,0.00,0.0
3452.303,-1.4160,7.3422,6.2405,-0.001358,-0.011353,0.036194,27.2659,-15.5899,-32.2372,0.000000,0.000000,0.0,0.00,0.0
3452.306,-1.4184,7.3613,6.2381,0.002899,-0.011353,0.033005,27.2659,-15.5899,-32.2372,0.000000,0.000000,0.0,0.00,0.0
3452.308,-1.3873,7.3398,6.2333,0.003967,-0.011353,0.035141,27.2659,-15.5899,-32.2372,0.000000,0.000000,0.0,0.00,0.0
3452.311,-1.3777,7.3446,6.2286,0.000778,-0.010284,0.037262,27.2659,-15.5899,-32.2372,0.000000,0.000000,0.0,0.00,0.0
3452.313,-1.3921,7.3493,6.2190,0.001846,-0.006027,0.035141,24.5193,-15.7700,-34.2270,0.000000,0.000000,0.0,0.00,0.0
3452.315,-1.3011,7.3541,6.2046,0.000778,-0.004959,0.036194,24.5193,-15.7700,-34.2270,0.000000,0.000000,0.0,0.00,0.0
3452.318,-1.2867,7.3326,6.1998,-0.003479,-0.006027,0.035141,24.5193,-15.7700,-34.2270,0.000000,0.000000,0.0,0.00,0.0
3452.321,-1.3226,7.3302,6.2453,-0.001358,-0.008163,0.035141,24.5193,-15.7700,-34.2270,0.000000,0.000000,0.0,0.00,0.0
3452.323,-1.3059,7.2847,6.2190,-0.006683,-0.011353,0.029800,24.5193,-15.7700,-34.2270,0.000000,0.000000,0.0,0.00,0.0
3452.326,-1.3011,7.3565,6.2238,-0.009872,-0.011353,0.027679,24.5193,-15.7700,-34.2270,0.000000,0.000000,0.0,0.00,0.0
3452.328,-1.2987,7.3374,6.1998,-0.012009,-0.013489,0.027679,24.5193,-15.7700,-34.2270,0.000000,0.000000,0.0,0.00,0.0
3452.331,-1.2963,7.2991,6.2405,-0.015198,-0.010284,0.027679,24.5193,-15.7700,-34.2270,0.000000,0.000000,0.0,0.00,0.0
3452.333,-1.2939,7.3158,6.2573,-0.015198,-0.014542,0.025543,26.0513,-14.6881,-31.6086,0.000000,0.000000,0.0,0.00,0.0
3452.336,-1.2676,7.3158,6.3267,-0.020538,-0.018814,0.021286,26.0513,-14.6881,-31.6086,0.000000,0.000000,0.0,0.00,0.0
3452.338,-1.2843,7.2991,6.3291,-0.017334,-0.019867,0.020218,26.0513,-14.6881,-31.6086,0.000000,0.000000,0.0,0.00,0.0
3452.341,-1.3011,7.3134,6.3243,-0.016266,-0.014542,0.021286,26.0513,-14.6881,-31.6086,0.000000,0.000000,0.0,0.00,0.0
3452.344,-1.3442,7.3374,6.3363,-0.019470,-0.012421,0.019150,26.0513,-14.6881,-31.6086,0.000000,0.000000,0.0,0.00,0.0
3452.346,-1.3705,7.3182,6.4057,-0.018402,-0.017746,0.017029,26.0513,-14.6881,-31.6086,0.000000,0.000000,0.0,0.00,0.0
3452.348,-1.3514,7.3350,6.3914,-0.016266,-0.017746,0.017029,26.0513,-14.6881,-31.6086,0.000000,0.000000,0.0,0.00,0.0
3452.351,-1.3346,7.3326,6.3794,-0.016266,-0.014542,0.017029,26.0513,-14.6881,-31.6086,0.000000,0.000000,0.0,0.00,0.0
3452.353,-1.3442,7.3230,6.4297,-0.012009,-0.017746,0.014893,26.0498,-14.6912,-33.4381,0.000000,0.000000,0.0,0.00,0.0
3452.355,-1.3346,7.2919,6.4512,-0.008820,-0.020935,0.015961,26.0498,-14.6912,-33.4381,0.000000,0.000000,0.0,0.00,0.0
3452.358,-1.3490,7.3038,6.4919,-0.008820,-0.024139,0.018097,26.0498,-14.6912,-33.4381,0.000000,0.000000,0.0,0.00,0.0
3452.363,-1.3442,7.3182,6.5398,-0.002426,-0.023071,0.015961,26.0498,-14.6912,-33.4381,0.000000,0.000000,0.0,0.00,0.0
3452.364,-1.3538,7.2895,6.5182,0.002899,-0.022003,0.017029,26.0498,-14.6912,-33.4381,0.000000,0.000000,0.0,0.00,0.0
3452.365,-1.3849,7.2871,6.4895,0.002899,-0.022003,0.017029,26.0498,-14.6912,-33.4381,0.000000,0.000000,0.0,0.00,0.0
3452.368,-1.3322,7.2560,6.4105,0.003967,-0.020935,0.018097,26.0498,-14.6912,-33.4381,0.000000,0.000000,0.0,0.00,0.0
3452.371,-1.3514,7.2919,6.4177,0.008224,-0.019867,0.015961,26.0498,-14.6912,-33.4381,0.000000,0.000000,0.0,0.00,0.0
3452.373,-1.3801,7.2584,6.4704,0.010361,-0.015610,0.015961,25.9048,-13.4735,-31.7337,0.000000,0.000000,0.0,0.00,0.0
3452.376,-1.3562,7.2536,6.4656,0.010361,-0.018814,0.012756,25.9048,-13.4735,-31.7337,0.000000,0.000000,0.0,0.00,0.0
3452.378,-1.3179,7.2679,6.4704,0.013565,-0.020935,0.013824,25.9048,-13.4735,-31.7337,0.000000,0.000000,0.0,0.00,0.0
3452.381,-1.3322,7.2751,6.4105,0.019943,-0.015610,0.015961,25.9048,-13.4735,-31.7337,0.000000,0.000000,0.0,0.00,0.0
3452.384,-1.3514,7.3086,6.4153,0.023148,-0.015610,0.014893,25.9048,-13.4735,-31.7337,0.000000,0.000000,0.0,0.00,0.0
3452.387,-1.3777,7.2871,6.3722,0.028473,-0.013489,0.018097,25.9048,-13.4735,-31.7337,0.000000,0.000000,0.0,0.00,0.0
3452.388,-1.3274,7.2488,6.3746,0.031662,-0.010284,0.021286,25.9048,-13.4735,-31.7337,0.000000,0.000000,0.0,0.00,0.0
3452.391,-1.3274,7.2632,6.3626,0.033798,-0.010284,0.020218,25.9048,-13.4735,-31.7337,0.000000,0.000000,0.0,0.00,0.0
3452.394,-1.3322,7.2751,6.3387,0.033798,-0.009216,0.019150,25.8865,-16.6702,-34.3979,0.000000,0.000000,0.0,0.00,0.0
3452.396,-1.3155,7.3565,6.3123,0.035934,-0.009216,0.021286,25.8865,-16.6702,-34.3979,0.000000,0.000000,0.0,0.00,0.0
3452.399,-1.2987,7.3781,6.2812,0.033798,-0.008163,0.021286,25.8865,-16.6702,-34.3979,0.000000,0.000000,0.0,0.00,0.0
3452.401,-1.3035,7.3470,6.2525,0.031662,-0.004959,0.017029,25.8865,-16.6702,-34.3979,0.000000,0.000000,0.0,0.00,0.0
3452.403,-1.2556,7.3302,6.2764,0.032730,0.000366,0.018097,25.8865,-16.6702,-34.3979,0.000000,0.000000,0.0,0.00,0.0
3452.406,-1.2412,7.3206,6.2525,0.034866,0.001434,0.017029,25.8865,-16.6702,-34.3979,0.000000,0.000000,0.0,0.00,0.0
3452.409,-1.2819,7.3661,6.1974,0.035934,0.000366,0.012756,25.8865,-16.6702,-34.3979,0.000000,0.000000,0.0,0.00,0.0
3452.411,-1.3035,7.3900,6.1591,0.026337,0.001434,0.012756,25.8865,-16.6702,-34.3979,0.000000,0.000000,0.0,0.00,0.0
3452.414,-1.2747,7.3637,6.1280,0.028473,0.003555,0.010635,26.0468,-15.1474,-33.4488,0.000000,0.000000,0.0,0.00,0.0
3452.417,-1.2891,7.3541,6.2094,0.028473,0.001434,0.009567,26.0468,-15.1474,-33.4488,0.000000,0.000000,0.0,0.00,0.0
3452.418,-1.2652,7.3541,6.2190,0.024216,-0.000702,0.007431,26.0468,-15.1474,-33.4488,0.000000,0.000000,0.0,0.00,0.0
3452.421,-1.3155,7.3972,6.1902,0.021011,-0.002823,0.006378,26.0468,-15.1474,-33.4488,0.000000,0.000000,0.0,0.00,0.0
3452.425,-1.3274,7.3661,6.1615,0.017822,-0.007095,0.004242,26.0468,-15.1474,-33.4488,0.000000,0.000000,0.0,0.00,0.0
3452.426,-1.3490,7.3829,6.1902,0.018890,-0.009216,0.001053,26.0468,-15.1474,-33.4488,0.000000,0.000000,0.0,0.00,0.0
3452.428,-1.3873,7.3733,6.2046,0.015686,-0.014542,0.001053,26.0468,-15.1474,-33.4488,0.000000,0.000000,0.0,0.00,0.0
3452.432,-1.3729,7.3493,6.2333,0.010361,-0.016678,0.002106,26.0468,-15.1474,-33.4488,0.000000,0.000000,0.0,0.00,0.0
3452.433,-1.4376,7.3422,6.2262,0.007172,-0.014542,-0.000015,25.8987,-14.8407,-31.7642,0.000000,0.000000,0.0,0.00,0.0
3452.438,-1.4424,7.3470,6.2309,0.005035,-0.019867,-0.001083,25.8987,-14.8407,-31.7642,0.000000,0.000000,0.0,0.00,0.0
3452.439,-1.4735,7.3470,6.2142,0.005035,-0.019867,-0.000015,25.8987,-14.8407,-31.7642,0.000000,0.000000,0.0,0.00,0.0
3452.441,-1.4543,7.3302,6.2381,0.003967,-0.015610,0.001053,25.8987,-14.8407,-31.7642,0.000000,0.000000,0.0,0.00,0.0
3452.444,-1.4256,7.3661,6.2525,0.005035,-0.015610,0.001053,25.8987,-14.8407,-31.7642,0.000000,0.000000,0.0,0.00,0.0
3452.448,-1.4447,7.3422,6.2669,0.005035,-0.015610,0.003174,25.8987,-14.8407,-31.7642,0.000000,0.000000,0.0,0.00,0.0
3452.449,-1.4136,7.3254,6.2262,0.005035,-0.015610,0.003174,25.8987,-14.8407,-31.7642,0.000000,0.000000,0.0,0.00,0.0
3452.452,-1.3873,7.3230,6.2477,0.007172,-0.017746,0.003174,25.8987,-14.8407,-31.7642,0.000000,0.000000,0.0,0.00,0.0
3452.453,-1.3849,7.3517,6.2788,0.007172,-0.018814,0.007431,26.0406,-16.5146,-33.4793,0.000000,0.000000,0.0,0.00,0.0
3452.457,-1.3586,7.3517,6.2525,0.007172,-0.016678,0.010635,26.0406,-16.5146,-33.4793,0.000000,0.000000,0.0,0.00,0.0
3452.459,-1.3346,7.3446,6.2262,0.007172,-0.017746,0.012756,26.0406,-16.5146,-33.4793,0.000000,0.000000,0.0,0.00,0.0
3452.461,-1.2843,7.3326,6.2717,0.007172,-0.014542,0.010635,26.0406,-16.5146,-33.4793,0.000000,0.000000,0.0,0.00,0.0
3452.464,-1.2436,7.3326,6.2860,0.009293,-0.012421,0.012756,26.0406,-16.5146,-33.4793,0.000000,0.000000,0.0,0.00,0.0
3452.467,-1.2508,7.3230,6.2908,0.009293,-0.015610,0.010635,26.0406,-16.5146,-33.4793,0.000000,0.000000,0.0,0.00,0.0
3452.471,-1.2412,7.3062,6.2908,0.007172,-0.011353,0.009567,26.0406,-16.5146,-33.4793,0.000000,0.000000,0.0,0.00,0.0
3452.472,-1.2484,7.3230,6.2669,0.007172,-0.003891,0.006378,26.0406,-16.5146,-33.4793,0.000000,0.000000,0.0,0.00,0.0
3452.474,-1.2532,7.3182,6.3171,0.007172,-0.001770,0.005310,26.0468,-15.1474,-33.4488,0.000000,0.000000,0.0,0.00,0.0
3452.476,-1.2221,7.3302,6.3267,0.006104,0.003555,0.005310,26.0468,-15.1474,-33.4488,0.000000,0.000000,0.0,0.00,0.0
3452.479,-1.2149,7.3110,6.3291,0.005035,0.006760,0.004242,26.0468,-15.1474,-33.4488,0.000000,0.000000,0.0,0.00,0.0
3452.481,-1.2484,7.3350,6.3315,0.005035,0.006760,0.003174,26.0468,-15.1474,-33.4488,0.000000,0.000000,0.0,0.00,0.0
3452.484,-1.2819,7.3302,6.3363,0.003967,0.006760,0.001053,26.0468,-15.1474,-33.4488,0.000000,0.000000,0.0,0.00,0.0
3452.487,-1.3011,7.3493,6.3123,0.007172,0.012085,-0.003220,26.0468,-15.1474,-33.4488,0.000000,0.000000,0.0,0.00,0.0
3452.489,-1.3394,7.3254,6.3387,0.006104,0.011017,-0.006409,26.0468,-15.1474,-33.4488,0.000000,0.000000,0.0,0.00,0.0
3452.492,-1.3538,7.3350,6.3435,0.002899,0.007828,-0.004288,26.0468,-15.1474,-33.4488,0.000000,0.000000,0.0,0.00,0.0
3452.494,-1.3777,7.3326,6.2884,0.005035,0.012085,-0.004288,24.3729,-14.5538,-33.5892,0.000000,0.000000,0.0,0.00,0.0
3452.497,-1.3657,7.3661,6.3219,0.000778,0.015274,-0.005341,24.3729,-14.5538,-33.5892,0.000000,0.000000,0.0,0.00,0.0
3452.500,-1.3849,7.3565,6.3171,0.001846,0.007828,-0.004288,24.3729,-14.5538,-33.5892,0.000000,0.000000,0.0,0.00,0.0
3452.502,-1.4256,7.3206,6.2693,0.003967,0.008896,-0.007477,24.3729,-14.5538,-33.5892,0.000000,0.000000,0.0,0.00,0.0
3452.505,-1.4352,7.3182,6.2669,0.007172,0.013153,-0.003220,24.3729,-14.5538,-33.5892,0.000000,0.000000,0.0,0.00,0.0
3452.509,-1.4663,7.3853,6.2453,0.005035,0.009949,-0.001083,24.3729,-14.5538,-33.5892,0.000000,0.000000,0.0,0.00,0.0
3452.510,-1.5166,7.3398,6.2477,0.005035,0.005692,-0.002151,24.3729,-14.5538,-33.5892,0.000000,0.000000,0.0,0.00,0.0
3452.512,-1.5166,7.2991,6.2812,0.007172,0.001434,-0.001083,24.3729,-14.5538,-33.5892,0.000000,0.000000,0.0,0.00,0.0
3452.514,-1.4854,7.3038,6.2525,0.008224,-0.001770,0.005310,24.9847,-14.3967,-33.4320,0.000000,0.000000,0.0,0.00,0.0
3452.517,-1.4711,7.3110,6.2286,0.005035,-0.002823,0.005310,24.9847,-14.3967,-33.4320,0.000000,0.000000,0.0,0.00,0.0
3452.520,-1.4352,7.3182,6.3028,0.006104,-0.010284,0.006378,24.9847,-14.3967,-33.4320,0.000000,0.000000,0.0,0.00,0.0
3452.522,-1.4280,7.3278,6.2788,0.006104,-0.012421,0.009567,24.9847,-14.3967,-33.4320,0.000000,0.000000,0.0,0.00,0.0
3452.531,-1.3849,7.3493,6.2621,0.006104,-0.014542,0.010635,24.9847,-14.3967,-33.4320,0.000000,0.000000,0.0,0.00,0.0
3452.532,-1.3801,7.3733,6.2477,0.005035,-0.014542,0.012756,24.9847,-14.3967,-33.4320,0.000000,0.000000,0.0,0.00,0.0
3452.532,-1.3825,7.3517,6.2717,0.002899,-0.012421,0.011703,24.9847,-14.3967,-33.4320,0.000000,0.000000,0.0,0.00,0.0
3452.532,-1.3945,7.3446,6.2788,0.006104,-0.011353,0.009567,24.9847,-14.3967,-33.4320,0.000000,0.000000,0.0,0.00,0.0
3452.534,-1.3681,7.3446,6.2501,0.008224,-0.010284,0.013824,24.6826,-14.2441,-31.7520,0.000000,0.000000,0.0,0.00,0.0
3452.537,-1.3346,7.3182,6.2118,0.006104,-0.008163,0.012756,24.6826,-14.2441,-31.7520,0.000000,0.000000,0.0,0.00,0.0
3452.539,-1.3801,7.3493,6.2262,0.005035,-0.016678,0.009567,24.6826,-14.2441,-31.7520,0.000000,0.000000,0.0,0.00,0.0
3452.542,-1.3705,7.3757,6.2405,0.002899,-0.014542,0.013824,24.6826,-14.2441,-31.7520,0.000000,0.000000,0.0,0.00,0.0
3452.545,-1.3609,7.3637,6.2166,0.005035,-0.013489,0.013824,24.6826,-14.2441,-31.7520,0.000000,0.000000,0.0,0.00,0.0
3452.547,-1.3346,7.3517,6.2549,0.003967,-0.013489,0.017029,24.6826,-14.2441,-31.7520,0.000000,0.000000,0.0,0.00,0.0
3452.550,-1.3298,7.3278,6.2429,-0.002426,-0.014542,0.011703,24.6826,-14.2441,-31.7520,0.000000,0.000000,0.0,0.00,0.0
3452.553,-1.3274,7.3613,6.2333,0.001846,-0.014542,0.008499,24.6826,-14.2441,-31.7520,0.000000,0.000000,0.0,0.00,0.0
3452.555,-1.3131,7.3661,6.2740,0.006104,-0.013489,0.012756,24.6826,-14.2441,-31.7520,0.000000,0.000000,0.0,0.00,0.0
3452.557,-1.3059,7.3757,6.2860,0.002899,-0.010284,0.009567,24.6826,-14.2441,-31.7520,0.000000,0.000000,0.0,0.00,0.0
3452.560,-1.3322,7.3110,6.2860,0.000778,-0.010284,0.009567,24.6826,-14.2441,-31.7520,0.000000,0.000000,0.0,0.00,0.0
3452.563,-1.2819,7.3350,6.2836,0.005035,-0.006027,0.010635,24.6826,-14.2441,-31.7520,0.000000,0.000000,0.0,0.00,0.0
3452.564,-1.2676,7.3206,6.2956,0.005035,-0.006027,0.011703,24.6826,-14.2441,-31.7520,0.000000,0.000000,0.0,0.00,0.0
3452.567,-1.2508,7.3350,6.3076,0.006104,-0.006027,0.010635,24.6826,-14.2441,-31.7520,0.000000,0.000000,0.0,0.00,0.0
3452.570,-1.2843,7.3517,6.3123,0.007172,-0.006027,0.009567,24.6826,-14.2441,-31.7520,0.000000,0.000000,0.0,0.00,0.0
3452.572,-1.3179,7.3350,6.3147,0.008224,-0.006027,0.009567,24.6826,-14.2441,-31.7520,0.000000,0.000000,0.0,0.00,0.0
3452.574,-1.2819,7.3589,6.3602,0.009293,-0.002823,0.007431,25.2823,-15.4587,-34.2194,0.000000,0.000000,0.0,0.00,0.0
3452.577,-1.2963,7.3302,6.3531,0.010361,-0.000702,0.006378,25.2823,-15.4587,-34.2194,0.000000,0.000000,0.0,0.00,0.0
3452.580,-1.3586,7.3613,6.3602,0.009293,0.001434,0.008499,25.2823,-15.4587,-34.2194,0.000000,0.000000,0.0,0.00,0.0
3452.582,-1.3155,7.3613,6.3100,0.011429,0.004623,0.006378,25.2823,-15.4587,-34.2194,0.000000,0.000000,0.0,0.00,0.0
3452.585,-1.2724,7.3829,6.3123,0.011429,0.006760,0.006378,25.2823,-15.4587,-34.2194,0.000000,0.000000,0.0,0.00,0.0
3452.589,-1.3562,7.3517,6.2956,0.010361,0.003555,0.005310,25.2823,-15.4587,-34.2194,0.000000,0.000000,0.0,0.00,0.0
3452.589,-1.3466,7.3326,6.2860,0.011429,0.003555,0.005310,25.2823,-15.4587,-34.2194,0.000000,0.000000,0.0,0.00,0.0
3452.592,-1.3514,7.3278,6.2669,0.011429,0.000366,0.004242,25.2823,-15.4587,-34.2194,0.000000,0.000000,0.0,0.00,0.0
3452.597,-1.3514,7.3254,6.3195,0.013565,-0.001770,0.002106,25.8957,-15.2985,-32.2327,0.000000,0.000000,0.0,0.00,0.0
3452.597,-1.3921,7.3493,6.3171,0.014618,-0.001770,0.002106,25.8957,-15.2985,-32.2327,0.000000,0.000000,0.0,0.00,0.0
3452.600,-1.3969,7.3254,6.2573,0.014618,-0.001770,0.002106,25.8957,-15.2985,-32.2327,0.000000,0.000000,0.0,0.00,0.0
3452.602,-1.3633,7.3613,6.2453,0.013565,-0.002823,0.004242,25.8957,-15.2985,-32.2327,0.000000,0.000000,0.0,0.00,0.0
3452.605,-1.4016,7.3589,6.2142,0.011429,-0.001770,0.006378,25.8957,-15.2985,-32.2327,0.000000,0.000000,0.0,0.00,0.0
3452.607,-1.3538,7.3350,6.2190,0.013565,-0.000702,0.004242,25.8957,-15.2985,-32.2327,0.000000,0.000000,0.0,0.00,0.0
3452.610,-1.4016,7.3470,6.2740,0.016754,-0.003891,0.006378,25.8957,-15.2985,-32.2327,0.000000,0.000000,0.0,0.00,0.0
3452.612,-1.3370,7.2895,6.2286,0.015686,-0.001770,0.005310,25.8957,-15.2985,-32.2327,0.000000,0.000000,0.0,0.00,0.0
3452.615,-1.3346,7.2871,6.2142,0.014618,-0.003891,0.008499,26.2024,-14.5370,-33.2825,0.000000,0.000000,0.0,0.00,0.0
3452.618,-1.3203,7.3398,6.2405,0.016754,-0.006027,0.008499,26.2024,-14.5370,-33.2825,0.000000,0.000000,0.0,0.00,0.0
3452.620,-1.3514,7.3350,6.2166,0.013565,-0.009216,0.007431,26.2024,-14.5370,-33.2825,0.000000,0.000000,0.0,0.00,0.0
3452.623,-1.3466,7.3781,6.2142,0.013565,-0.008163,0.007431,26.2024,-14.5370,-33.2825,0.000000,0.000000,0.0,0.00,0.0
3452.625,-1.2987,7.3350,6.2166,0.013565,-0.007095,0.006378,26.2024,-14.5370,-33.2825,0.000000,0.000000,0.0,0.00,0.0
3452.627,-1.2628,7.3613,6.2525,0.012497,-0.002823,0.005310,26.2024,-14.5370,-33.2825,0.000000,0.000000,0.0,0.00,0.0
3452.630,-1.2819,7.3661,6.2333,0.009293,-0.000702,0.005310,26.2024,-14.5370,-33.2825,0.000000,0.000000,0.0,0.00,0.0
3452.633,-1.3035,7.3470,6.2573,0.007172,-0.006027,0.004242,26.2024,-14.5370,-33.2825,0.000000,0.000000,0.0,0.00,0.0
3452.635,-1.3274,7.3158,6.2788,0.010361,0.001434,0.002106,27.8748,-15.4358,-33.4534,0.000000,0.000000,0.0,0.00,0.0
3452.637,-1.3538,7.3493,6.2812,0.007172,0.003555,0.002106,27.8748,-15.4358,-33.4534,0.000000,0.000000,0.0,0.00,0.0
3452.640,-1.3633,7.3661,6.2405,0.003967,0.000366,0.001053,27.8748,-15.4358,-33.4534,0.000000,0.000000,0.0,0.00,0.0
3452.643,-1.3633,7.3517,6.2214,0.003967,0.002502,-0.000015,27.8748,-15.4358,-33.4534,0.000000,0.000000,0.0,0.00,0.0
3452.645,-1.3945,7.3493,6.1735,0.002899,0.003555,-0.000015,27.8748,-15.4358,-33.4534,0.000000,0.000000,0.0,0.00,0.0
3452.649,-1.4016,7.3230,6.1879,0.001846,0.007828,0.002106,27.8748,-15.4358,-33.4534,0.000000,0.000000,0.0,0.00,0.0
3452.650,-1.4016,7.3398,6.1974,0.003967,0.007828,0.003174,27.8748,-15.4358,-33.4534,0.000000,0.000000,0.0,0.00,0.0
3452.653,-1.3442,7.3637,6.1496,-0.002426,0.005692,0.004242,26.3565,-13.9313,-34.4879,0.000000,0.000000,0.0,0.00,0.0
3452.655,-1.3825,7.3517,6.1735,-0.002426,0.003555,0.004242,26.3565,-13.9313,-34.4879,0.000000,0.000000,0.0,0.00,0.0
3452.658,-1.3897,7.3541,6.1831,-0.003479,0.002502,0.005310,26.3565,-13.9313,-34.4879,0.000000,0.000000,0.0,0.00,0.0
3452.660,-1.3921,7.3038,6.2238,-0.001358,0.004623,0.002106,26.3565,-13.9313,-34.4879,0.000000,0.000000,0.0,0.00,0.0
3452.663,-1.3753,7.3661,6.1974,-0.004547,0.003555,0.005310,26.3565,-13.9313,-34.4879,0.000000,0.000000,0.0,0.00,0.0
3452.666,-1.3586,7.3661,6.2094,-0.005615,0.003555,0.007431,26.3565,-13.9313,-34.4879,0.000000,0.000000,0.0,0.00,0.0
3452.668,-1.3490,7.3302,6.2118,-0.007751,0.002502,0.003174,26.3565,-13.9313,-34.4879,0.000000,0.000000,0.0,0.00,0.0
3452.671,-1.3346,7.3134,6.1663,-0.007751,-0.002823,0.003174,26.3565,-13.9313,-34.4879,0.000000,0.000000,0.0,0.00,0.0
3452.673,-1.3777,7.3517,6.1831,-0.008820,-0.001770,0.005310,26.3504,-15.4480,-33.4549,0.000000,0.000000,0.0,0.00,0.0
3452.677,-1.3586,7.3541,6.1472,-0.007751,-0.002823,0.005310,26.3504,-15.4480,-33.4549,0.000000,0.000000,0.0,0.00,0.0
3452.678,-1.3274,7.3493,6.2214,-0.010941,-0.007095,0.002106,26.3504,-15.4480,-33.4549,0.000000,0.000000,0.0,0.00,0.0
3452.681,-1.3083,7.4116,6.2333,-0.010941,-0.012421,0.002106,26.3504,-15.4480,-33.4549,0.000000,0.000000,0.0,0.00,0.0
3452.683,-1.3107,7.3781,6.2429,-0.015198,-0.015610,0.003174,26.3504,-15.4480,-33.4549,0.000000,0.000000,0.0,0.00,0.0
3452.685,-1.3035,7.3589,6.2956,-0.010941,-0.015610,0.003174,26.3504,-15.4480,-33.4549,0.000000,0.000000,0.0,0.00,0.0
3452.690,-1.3107,7.3350,6.3171,-0.010941,-0.015610,0.003174,26.3504,-15.4480,-33.4549,0.000000,0.000000,0.0,0.00,0.0
3452.690,-1.3035,7.3158,6.2764,-0.014145,-0.014542,0.003174,26.3504,-15.4480,-33.4549,0.000000,0.000000,0.0,0.00,0.0
3452.693,-1.2652,7.3446,6.2645,-0.013077,-0.013489,0.001053,25.8911,-15.6052,-34.0698,0.000000,0.000000,0.0,0.00,0.0
3452.695,-1.3250,7.3470,6.3339,-0.010941,-0.012421,0.002106,25.8911,-15.6052,-34.0698,0.000000,0.000000,0.0,0.00,0.0
3452.698,-1.2915,7.3470,6.2669,-0.010941,-0.009216,0.002106,25.8911,-15.6052,-34.0698,0.000000,0.000000,0.0,0.00,0.0
3452.701,-1.3466,7.3110,6.2764,-0.009872,-0.003891,0.001053,25.8911,-15.6052,-34.0698,0.000000,0.000000,0.0,0.00,0.0
3452.703,-1.3633,7.3062,6.3052,-0.006683,-0.008163,0.002106,25.8911,-15.6052,-34.0698,0.000000,0.000000,0.0,0.00,0.0
3452.706,-1.3370,7.3661,6.3147,-0.007751,-0.010284,0.001053,25.8911,-15.6052,-34.0698,0.000000,0.000000,0.0,0.00,0.0
3452.710,-1.3586,7.3302,6.3578,-0.005615,-0.004959,0.003174,25.8911,-15.6052,-34.0698,0.000000,0.000000,0.0,0.00,0.0
3452.711,-1.4112,7.2847,6.3243,-0.005615,-0.007095,0.004242,25.8911,-15.6052,-34.0698,0.000000,0.000000,0.0,0.00,0.0
3452.714,-1.3945,7.3278,6.3219,-0.004547,-0.004959,0.004242,25.4364,-15.3046,-33.3008,0.000000,0.000000,0.0,0.00,0.0
3452.716,-1.4184,7.3326,6.3219,-0.003479,0.002502,0.003174,25.4364,-15.3046,-33.3008,0.000000,0.000000,0.0,0.00,0.0
3452.718,-1.3657,7.2751,6.3435,-0.002426,0.001434,0.004242,25.4364,-15.3046,-33.3008,0.000000,0.000000,0.0,0.00,0.0
3452.721,-1.3801,7.2823,6.2932,-0.004547,0.001434,0.006378,25.4364,-15.3046,-33.3008,0.000000,0.000000,0.0,0.00,0.0
3452.725,-1.3609,7.3278,6.3052,-0.003479,0.000366,0.007431,25.4364,-15.3046,-33.3008,0.000000,0.000000,0.0,0.00,0.0
3452.725,-1.3370,7.3206,6.2764,0.000778,0.003555,0.006378,25.4364,-15.3046,-33.3008,0.000000,0.000000,0.0,0.00,0.0
3452.729,-1.3442,7.3613,6.2788,0.000778,0.001434,0.009567,25.4364,-15.3046,-33.3008,0.000000,0.000000,0.0,0.00,0.0
3452.731,-1.3107,7.3613,6.2932,-0.000290,0.006760,0.009567,25.4364,-15.3046,-33.3008,0.000000,0.000000,0.0,0.00,0.0
3452.734,-1.2771,7.3110,6.3076,0.000778,0.004623,0.008499,26.3504,-15.7516,-32.6996,0.000000,0.000000,0.0,0.00,0.0
3452.736,-1.2436,7.3230,6.2860,0.000778,0.008896,0.008499,26.3504,-15.7516,-32.6996,0.000000,0.000000,0.0,0.00,0.0
3452.739,-1.2532,7.3398,6.2956,0.002899,0.013153,0.007431,26.3504,-15.7516,-32.6996,0.000000,0.000000,0.0,0.00,0.0
3452.741,-1.2676,7.3541,6.2788,0.001846,0.012085,0.005310,26.3504,-15.7516,-32.6996,0.000000,0.000000,0.0,0.00,0.0
3452.745,-1.2580,7.3422,6.2836,-0.001358,0.012085,0.002106,26.3504,-15.7516,-32.6996,0.000000,0.000000,0.0,0.00,0.0
3452.746,-1.2341,7.3326,6.2573,-0.000290,0.012085,0.003174,26.3504,-15.7516,-32.6996,0.000000,0.000000,0.0,0.00,0.0
3452.749,-1.2436,7.3685,6.2693,-0.003479,0.012085,0.002106,26.3504,-15.7516,-32.6996,0.000000,0.000000,0.0,0.00,0.0
3452.751,-1.2556,7.3326,6.2501,-0.000290,0.009949,-0.000015,26.3504,-15.7516,-32.6996,0.000000,0.000000,0.0,0.00,0.0
3452.754,-1.2819,7.3517,6.2166,-0.000290,0.008896,-0.001083,24.5285,-13.9465,-34.4910,0.000000,0.000000,0.0,0.00,0.0
3452.756,-1.2963,7.3422,6.2836,-0.000290,0.008896,-0.004288,24.5285,-13.9465,-34.4910,0.000000,0.000000,0.0,0.00,0.0
3452.759,-1.3370,7.3517,6.2956,-0.003479,0.004623,-0.004288,24.5285,-13.9465,-34.4910,0.000000,0.000000,0.0,0.00,0.0
3452.761,-1.2867,7.3326,6.2621,-0.005615,0.007828,-0.004288,24.5285,-13.9465,-34.4910,0.000000,0.000000,0.0,0.00,0.0
3452.763,-1.2963,7.3302,6.1711,-0.006683,0.009949,-0.005341,24.5285,-13.9465,-34.4910,0.000000,0.000000,0.0,0.00,0.0
3452.766,-1.3274,7.2895,6.1855,-0.006683,0.006760,-0.003220,24.5285,-13.9465,-34.4910,0.000000,0.000000,0.0,0.00,0.0
3452.769,-1.3370,7.2943,6.2262,-0.006683,0.008896,-0.006409,24.5285,-13.9465,-34.4910,0.000000,0.000000,0.0,0.00,0.0
3452.771,-1.3657,7.3302,6.2405,-0.007751,0.005692,-0.006409,24.5285,-13.9465,-34.4910,0.000000,0.000000,0.0,0.00,0.0
3452.773,-1.3657,7.3350,6.2429,-0.007751,0.005692,-0.006409,25.2808,-16.2155,-32.1014,0.000000,0.000000,0.0,0.00,0.0
3452.776,-1.3418,7.3517,6.2214,-0.012009,0.001434,-0.007477,25.2808,-16.2155,-32.1014,0.000000,0.000000,0.0,0.00,0.0
3452.779,-1.3993,7.3709,6.2549,-0.005615,0.004623,-0.006409,25.2808,-16.2155,-32.1014,0.000000,0.000000,0.0,0.00,0.0
3452.781,-1.4471,7.3613,6.2597,-0.007751,0.004623,-0.006409,25.2808,-16.2155,-32.1014,0.000000,0.000000,0.0,0.00,0.0
3452.784,-1.4256,7.3517,6.2884,-0.009872,0.002502,-0.005341,25.2808,-16.2155,-32.1014,0.000000,0.000000,0.0,0.00,0.0
3452.786,-1.4160,7.3805,6.2908,-0.004547,0.000366,-0.003220,25.2808,-16.2155,-32.1014,0.000000,0.000000,0.0,0.00,0.0
3452.790,-1.4160,7.4044,6.2453,-0.004547,-0.001770,-0.002151,25.2808,-16.2155,-32.1014,0.000000,0.000000,0.0,0.00,0.0
3452.791,-1.4591,7.3613,6.2740,-0.006683,-0.002823,-0.001083,25.2808,-16.2155,-32.1014,0.000000,0.000000,0.0,0.00,0.0
3452.794,-1.4328,7.3230,6.2836,-0.002426,-0.002823,-0.003220,26.8051,-16.2033,-32.7103,0.000000,0.000000,0.0,0.00,0.0
3452.798,-1.4232,7.3278,6.3076,-0.003479,0.000366,0.001053,26.8051,-16.2033,-32.7103,0.000000,0.000000,0.0,0.00,0.0
3452.799,-1.4184,7.3685,6.2405,-0.002426,0.000366,0.002106,26.8051,-16.2033,-32.7103,0.000000,0.000000,0.0,0.00,0.0
3452.801,-1.4543,7.3589,6.2717,0.000778,0.002502,0.003174,26.8051,-16.2033,-32.7103,0.000000,0.000000,0.0,0.00,0.0
3452.804,-1.4352,7.3062,6.2645,-0.001358,0.000366,0.005310,26.8051,-16.2033,-32.7103,0.000000,0.000000,0.0,0.00,0.0
3452.807,-1.3609,7.3326,6.1998,-0.000290,-0.002823,0.004242,26.8051,-16.2033,-32.7103,0.000000,0.000000,0.0,0.00,0.0
3452.810,-1.3586,7.3230,6.2142,-0.002426,-0.000702,0.007431,26.8051,-16.2033,-32.7103,0.000000,0.000000,0.0,0.00,0.0
3452.811,-1.3609,7.3422,6.1879,-0.005615,0.001434,0.011703,26.8051,-16.2033,-32.7103,0.000000,0.000000,0.0,0.00,0.0
3452.814,-1.3753,7.3565,6.1711,-0.002426,-0.000702,0.008499,25.1343,-14.5493,-34.3506,0.000000,0.000000,0.0,0.00,0.0
3452.816,-1.3657,7.3470,6.1759,-0.006683,-0.007095,0.008499,25.1343,-14.5493,-34.3506,0.000000,0.000000,0.0,0.00,0.0
3452.820,-1.3370,7.3709,6.2309,-0.007751,-0.009216,0.008499,25.1343,-14.5493,-34.3506,0.000000,0.000000,0.0,0.00,0.0
3452.821,-1.3179,7.3493,6.2597,-0.006683,-0.008163,0.008499,25.1343,-14.5493,-34.3506,0.000000,0.000000,0.0,0.00,0.0
3452.824,-1.3250,7.3948,6.2429,-0.009872,-0.008163,0.006378,25.1343,-14.5493,-34.3506,0.000000,0.000000,0.0,0.00,0.0
3452.828,-1.3538,7.3541,6.2788,-0.014145,-0.010284,0.007431,25.1343,-14.5493,-34.3506,0.000000,0.000000,0.0,0.00,0.0
3452.829,-1.3418,7.3326,6.2740,-0.016266,-0.009216,0.003174,25.1343,-14.5493,-34.3506,0.000000,0.000000,0.0,0.00,0.0
3452.832,-1.2915,7.3541,6.2764,-0.015198,-0.007095,0.004242,25.1343,-14.5493,-34.3506,0.000000,0.000000,0.0,0.00,0.0
3452.834,-1.2843,7.3709,6.3507,-0.015198,-0.002823,0.005310,25.1312,-15.9103,-31.4850,0.000000,0.000000,0.0,0.00,0.0
3452.836,-1.3274,7.3158,6.3507,-0.014145,-0.007095,0.002106,25.1312,-15.9103,-31.4850,0.000000,0.000000,0.0,0.00,0.0
3452.841,-1.3538,7.3230,6.3267,-0.014145,-0.008163,0.001053,25.1312,-15.9103,-31.4850,0.000000,0.000000,0.0,0.00,0.0
3452.842,-1.2987,7.3230,6.3076,-0.012009,-0.004959,0.003174,25.1312,-15.9103,-31.4850,0.000000,0.000000,0.0,0.00,0.0
3452.844,-1.2987,7.3350,6.2980,-0.009872,-0.002823,0.001053,25.1312,-15.9103,-31.4850,0.000000,0.000000,0.0,0.00,0.0
3452.847,-1.3226,7.3326,6.3291,-0.007751,-0.003891,0.002106,25.1312,-15.9103,-31.4850,0.000000,0.000000,0.0,0.00,0.0
3452.851,-1.2819,7.3422,6.3171,-0.008820,0.002502,0.005310,25.1312,-15.9103,-31.4850,0.000000,0.000000,0.0,0.00,0.0
3452.852,-1.3155,7.3661,6.2860,-0.008820,0.000366,0.004242,25.1312,-15.9103,-31.4850,0.000000,0.000000,0.0,0.00,0.0
3452.854,-1.3011,7.3637,6.2764,-0.007751,0.004623,0.006378,25.8911,-15.9073,-33.0093,0.000000,0.000000,0.0,0.00,0.0
3452.857,-1.2652,7.3829,6.2932,-0.004547,0.008896,0.004242,25.8911,-15.9073,-33.0093,0.000000,0.000000,0.0,0.00,0.0
3452.859,-1.2987,7.3876,6.2932,-0.001358,0.014221,0.004242,25.8911,-15.9073,-33.0093,0.000000,0.000000,0.0,0.00,0.0
3452.863,-1.2987,7.3541,6.3052,-0.001358,0.015274,0.005310,25.8911,-15.9073,-33.0093,0.000000,0.000000,0.0,0.00,0.0
3452.864,-1.3298,7.3637,6.3291,-0.002426,0.015274,0.002106,25.8911,-15.9073,-33.0093,0.000000,0.000000,0.0,0.00,0.0
3452.868,-1.3370,7.3254,6.2884,-0.004547,0.011017,0.001053,25.8911,-15.9073,-33.0093,0.000000,0.000000,0.0,0.00,0.0
3452.871,-1.3370,7.2967,6.2812,-0.004547,0.014221,0.001053,25.8911,-15.9073,-33.0093,0.000000,0.000000,0.0,0.00,0.0
3452.872,-1.3729,7.3278,6.3004,-0.004547,0.018478,0.002106,25.8911,-15.9073,-33.0093,0.000000,0.000000,0.0,0.00,0.0
3452.875,-1.3538,7.3326,6.3171,-0.002426,0.016342,-0.001083,26.9608,-15.5914,-31.7810,0.000000,0.000000,0.0,0.00,0.0
3452.878,-1.3394,7.3062,6.3004,-0.002426,0.016342,0.001053,26.9608,-15.5914,-31.7810,0.000000,0.000000,0.0,0.00,0.0
3452.880,-1.3562,7.3134,6.2860,-0.001358,0.012085,0.001053,26.9608,-15.5914,-31.7810,0.000000,0.000000,0.0,0.00,0.0
3452.882,-1.3609,7.2895,6.2788,-0.003479,0.013153,0.003174,26.9608,-15.5914,-31.7810,0.000000,0.000000,0.0,0.00,0.0
3452.886,-1.3538,7.3446,6.2693,-0.001358,0.019547,0.004242,26.9608,-15.5914,-31.7810,0.000000,0.000000,0.0,0.00,0.0
3452.887,-1.3657,7.3398,6.2740,-0.002426,0.020599,0.002106,26.9608,-15.5914,-31.7810,0.000000,0.000000,0.0,0.00,0.0
3452.890,-1.3729,7.3302,6.3052,-0.003479,0.018478,0.001053,26.9608,-15.5914,-31.7810,0.000000,0.000000,0.0,0.00,0.0
3452.892,-1.3586,7.3613,6.2429,-0.003479,0.018478,0.003174,26.9608,-15.5914,-31.7810,0.000000,0.000000,0.0,0.00,0.0
3452.894,-1.3370,7.3565,6.2333,-0.000290,0.018478,0.004242,25.4364,-15.3061,-34.0622,0.000000,0.000000,0.0,0.00,0.0
3452.897,-1.3250,7.3517,6.2597,-0.002426,0.020599,0.003174,25.4364,-15.3061,-34.0622,0.000000,0.000000,0.0,0.00,0.0
3452.900,-1.3203,7.3374,6.2286,-0.002426,0.018478,0.001053,25.4364,-15.3061,-34.0622,0.000000,0.000000,0.0,0.00,0.0
3452.903,-1.3322,7.2943,6.2094,-0.002426,0.011017,0.002106,25.4364,-15.3061,-34.0622,0.000000,0.000000,0.0,0.00,0.0
3452.904,-1.3298,7.3134,6.2022,-0.001358,0.011017,-0.000015,25.4364,-15.3061,-34.0622,0.000000,0.000000,0.0,0.00,0.0
3452.907,-1.3035,7.3062,6.2070,-0.003479,0.007828,0.001053,25.4364,-15.3061,-34.0622,0.000000,0.000000,0.0,0.00,0.0
3452.909,-1.3107,7.3446,6.2429,-0.003479,0.005692,0.001053,25.4364,-15.3061,-34.0622,0.000000,0.000000,0.0,0.00,0.0
3452.913,-1.3107,7.3517,6.2669,-0.006683,0.002502,0.001053,25.4364,-15.3061,-34.0622,0.000000,0.000000,0.0,0.00,0.0
3452.914,-1.3083,7.3326,6.2693,-0.004547,0.001434,-0.001083,25.5890,-15.4556,-33.4564,0.000000,0.000000,0.0,0.00,0.0
3452.917,-1.3466,7.3134,6.2573,-0.005615,-0.001770,-0.000015,25.5890,-15.4556,-33.4564,0.000000,0.000000,0.0,0.00,0.0
3452.920,-1.3466,7.3541,6.2501,-0.007751,-0.000702,0.002106,25.5890,-15.4556,-33.4564,0.000000,0.000000,0.0,0.00,0.0
3452.922,-1.3418,7.3062,6.3267,-0.005615,-0.002823,-0.001083,25.5890,-15.4556,-33.4564,0.000000,0.000000,0.0,0.00,0.0
3452.924,-1.3226,7.3062,6.3123,-0.004547,-0.000702,-0.001083,25.5890,-15.4556,-33.4564,0.000000,0.000000,0.0,0.00,0.0
3452.927,-1.3035,7.3398,6.3243,-0.004547,0.000366,-0.001083,25.5890,-15.4556,-33.4564,0.000000,0.000000,0.0,0.00,0.0
3452.930,-1.3418,7.3565,6.3339,-0.004547,-0.001770,-0.001083,25.5890,-15.4556,-33.4564,0.000000,0.000000,0.0,0.00,0.0
3452.934,-1.3466,7.3326,6.3961,-0.003479,-0.003891,-0.003220,25.5890,-15.4556,-33.4564,0.000000,0.000000,0.0,0.00,0.0
3452.934,-1.3274,7.3278,6.3866,-0.003479,0.000366,-0.004288,26.7990,-17.2684,-33.1909,0.000000,0.000000,0.0,0.00,0.0
3452.938,-1.3298,7.3470,6.3842,0.001846,0.001434,-0.002151,26.7990,-17.2684,-33.1909,0.000000,0.000000,0.0,0.00,0.0
3452.940,-1.3681,7.3374,6.3507,0.001846,0.004623,-0.003220,26.7990,-17.2684,-33.1909,0.000000,0.000000,0.0,0.00,0.0
3452.942,-1.3538,7.3326,6.3100,0.002899,0.006760,-0.002151,26.7990,-17.2684,-33.1909,0.000000,0.000000,0.0,0.00,0.0
3452.945,-1.3753,7.3493,6.3435,0.002899,0.008896,0.001053,26.7990,-17.2684,-33.1909,0.000000,0.000000,0.0,0.00,0.0
3452.947,-1.3801,7.3661,6.3100,0.002899,0.011017,-0.001083,26.7990,-17.2684,-33.1909,0.000000,0.000000,0.0,0.00,0.0
3452.950,-1.3777,7.3541,6.2381,0.008224,0.014221,-0.000015,26.7990,-17.2684,-33.1909,0.000000,0.000000,0.0,0.00,0.0
3452.953,-1.3921,7.3781,6.2142,0.007172,0.012085,0.001053,26.7990,-17.2684,-33.1909,0.000000,0.000000,0.0,0.00,0.0
3452.956,-1.4064,7.3470,6.2046,0.005035,0.015274,0.004242,26.1993,-15.2985,-33.6044,0.000000,0.000000,0.0,0.00,0.0
3452.957,-1.3657,7.3661,6.1759,0.005035,0.014221,0.004242,26.1993,-15.2985,-33.6044,0.000000,0.000000,0.0,0.00,0.0
3452.960,-1.3586,7.4379,6.1496,0.002899,0.012085,0.002106,26.1993,-15.2985,-33.6044,0.000000,0.000000,0.0,0.00,0.0
3452.963,-1.3681,7.4068,6.1759,0.000778,0.016342,0.001053,26.1993,-15.2985,-33.6044,0.000000,0.000000,0.0,0.00,0.0
3452.966,-1.3514,7.4307,6.1088,-0.004547,0.017410,-0.000015,26.1993,-15.2985,-33.6044,0.000000,0.000000,0.0,0.00,0.0
3452.968,-1.3490,7.3972,6.1088,-0.006683,0.013153,0.001053,26.1993,-15.2985,-33.6044,0.000000,0.000000,0.0,0.00,0.0
3452.970,-1.3609,7.4403,6.1232,-0.009872,0.008896,-0.002151,26.1993,-15.2985,-33.6044,0.000000,0.000000,0.0,0.00,0.0
3452.974,-1.3921,7.3685,6.1591,-0.010941,0.004623,-0.001083,24.6735,-15.6143,-33.3084,0.000000,0.000000,0.0,0.00,0.0
3452.975,-1.3873,7.3565,6.1639,-0.015198,-0.001770,-0.001083,24.6735,-15.6143,-33.3084,0.000000,0.000000,0.0,0.00,0.0
3452.978,-1.3681,7.3829,6.1711,-0.018402,-0.004959,-0.004288,24.6735,-15.6143,-33.3084,0.000000,0.000000,0.0,0.00,0.0
3452.980,-1.4256,7.3589,6.2262,-0.019470,-0.010284,-0.005341,24.6735,-15.6143,-33.3084,0.000000,0.000000,0.0,0.00,0.0
3452.983,-1.3753,7.3134,6.2333,-0.019470,-0.014542,-0.005341,24.6735,-15.6143,-33.3084,0.000000,0.000000,0.0,0.00,0.0
3452.985,-1.3801,7.3134,6.2597,-0.022659,-0.015610,-0.005341,24.6735,-15.6143,-33.3084,0.000000,0.000000,0.0,0.00,0.0
3452.988,-1.3993,7.3062,6.3650,-0.024796,-0.017746,-0.004288,24.6735,-15.6143,-33.3084,0.000000,0.000000,0.0,0.00,0.0
3452.990,-1.4040,7.2991,6.3219,-0.020538,-0.019867,-0.004288,24.6735,-15.6143,-33.3084,0.000000,0.000000,0.0,0.00,0.0
3452.993,-1.3945,7.3182,6.3578,-0.021591,-0.014542,-0.000015,27.4155,-15.7425,-33.1558,0.000000,0.000000,0.0,0.00,0.0
3452.995,-1.4160,7.2727,6.3961,-0.019470,-0.010284,0.001053,27.4155,-15.7425,-33.1558,0.000000,0.000000,0.0,0.00,0.0
3452.998,-1.3993,7.3374,6.3578,-0.018402,-0.012421,-0.002151,27.4155,-15.7425,-33.1558,0.000000,0.000000,0.0,0.00,0.0
3453.000,-1.3729,7.3374,6.4009,-0.013077,-0.010284,-0.001083,27.4155,-15.7425,-33.1558,0.000000,0.000000,0.0,0.00,0.0
3453.003,-1.4112,7.2967,6.3985,-0.005615,-0.003891,0.001053,27.4155,-15.7425,-33.1558,0.000000,0.000000,0.0,0.00,0.0
3453.005,-1.3945,7.2919,6.3938,-0.002426,-0.004959,0.004242,27.4155,-15.7425,-33.1558,0.000000,0.000000,0.0,0.00,0.0
3453.008,-1.3514,7.3230,6.3722,-0.001358,0.003555,0.004242,27.4155,-15.7425,-33.1558,0.000000,0.000000,0.0,0.00,0.0
3453.010,-1.3107,7.3661,6.3602,0.001846,0.006760,0.008499,27.4155,-15.7425,-33.1558,0.000000,0.000000,0.0,0.00,0.0
3453.013,-1.3322,7.2967,6.2812,0.000778,0.007828,0.009567,24.6811,-14.2456,-32.9727,0.000000,0.000000,0.0,0.00,0.0
3453.015,-1.3107,7.3637,6.2740,0.002899,0.012085,0.006378,24.6811,-14.2456,-32.9727,0.000000,0.000000,0.0,0.00,0.0
3453.018,-1.3083,7.3302,6.3004,0.003967,0.017410,0.007431,24.6811,-14.2456,-32.9727,0.000000,0.000000,0.0,0.00,0.0
3453.021,-1.3035,7.3589,6.2573,0.001846,0.017410,0.007431,24.6811,-14.2456,-32.9727,0.000000,0.000000,0.0,0.00,0.0
3453.023,-1.2700,7.3637,6.2477,0.002899,0.019547,0.007431,24.6811,-14.2456,-32.9727,0.000000,0.000000,0.0,0.00,0.0
3453.025,-1.2484,7.3613,6.2453,0.001846,0.020599,0.006378,24.6811,-14.2456,-32.9727,0.000000,0.000000,0.0,0.00,0.0
3453.028,-1.2819,7.3733,6.2405,-0.000290,0.019547,0.003174,24.6811,-14.2456,-32.9727,0.000000,0.000000,0.0,0.00,0.0
3453.030,-1.3035,7.3805,6.1902,-0.002426,0.017410,0.004242,24.6811,-14.2456,-32.9727,0.000000,0.000000,0.0,0.00,0.0
3453.033,-1.3250,7.3613,6.2190,-0.003479,0.016342,-0.000015,26.2024,-14.8392,-32.2220,0.000000,0.000000,0.0,0.00,0.0
3453.035,-1.3562,7.3924,6.2286,-0.004547,0.015274,-0.004288,26.2024,-14.8392,-32.2220,0.000000,0.000000,0.0,0.00,0.0
3453.038,-1.3586,7.3733,6.2046,-0.005615,0.012085,-0.004288,26.2024,-14.8392,-32.2220,0.000000,0.000000,0.0,0.00,0.0
3453.041,-1.3394,7.3853,6.2262,-0.007751,0.007828,-0.002151,26.2024,-14.8392,-32.2220,0.000000,0.000000,0.0,0.00,0.0
3453.043,-1.3777,7.3829,6.2597,-0.005615,0.008896,-0.002151,26.2024,-14.8392,-32.2220,0.000000,0.000000,0.0,0.00,0.0
3453.047,-1.3825,7.3182,6.2740,-0.008820,0.003555,-0.002151,26.2024,-14.8392,-32.2220,0.000000,0.000000,0.0,0.00,0.0
3453.048,-1.4064,7.3350,6.2717,-0.008820,-0.000702,-0.002151,26.2024,-14.8392,-32.2220,0.000000,0.000000,0.0,0.00,0.0
3453.050,-1.3801,7.3541,6.3650,-0.006683,-0.001770,-0.001083,26.2024,-14.8392,-32.2220,0.000000,0.000000,0.0,0.00,0.0
3453.053,-1.4280,7.3158,6.3387,-0.003479,-0.000702,0.001053,24.6841,-13.4872,-33.5648,0.000000,0.000000,0.0,0.00,0.0
3453.055,-1.4280,7.3278,6.3147,-0.002426,-0.002823,-0.000015,24.6841,-13.4872,-33.5648,0.000000,0.000000,0.0,0.00,0.0
3453.058,-1.4232,7.3446,6.3195,-0.001358,-0.007095,-0.001083,24.6841,-13.4872,-33.5648,0.000000,0.000000,0.0,0.00,0.0
3453.061,-1.3897,7.3182,6.3076,0.000778,-0.001770,0.003174,24.6841,-13.4872,-33.5648,0.000000,0.000000,0.0,0.00,0.0
3453.064,-1.3801,7.2967,6.3243,0.002899,0.000366,0.007431,24.6841,-13.4872,-33.5648,0.000000,0.000000,0.0,0.00,0.0
3453.066,-1.3729,7.3637,6.3291,0.005035,0.000366,0.005310,24.6841,-13.4872,-33.5648,0.000000,0.000000,0.0,0.00,0.0
3453.069,-1.3226,7.3110,6.3626,0.007172,0.001434,0.007431,24.6841,-13.4872,-33.5648,0.000000,0.000000,0.0,0.00,0.0
3453.071,-1.3250,7.2823,6.3339,0.003967,0.003555,0.007431,24.6841,-13.4872,-33.5648,0.000000,0.000000,0.0,0.00,0.0
3453.073,-1.3131,7.3661,6.2956,0.007172,0.003555,0.006378,25.5936,-14.6912,-31.6086,0.000000,0.000000,0.0,0.00,0.0
3453.076,-1.3035,7.3948,6.3315,0.008224,0.007828,0.006378,25.5936,-14.6912,-31.6086,0.000000,0.000000,0.0,0.00,0.0
3453.078,-1.3226,7.3757,6.2812,0.002899,0.007828,0.007431,25.5936,-14.6912,-31.6086,0.000000,0.000000,0.0,0.00,0.0
3453.081,-1.3226,7.3685,6.3028,0.006104,0.005692,0.009567,25.5936,-14.6912,-31.6086,0.000000,0.000000,0.0,0.00,0.0
3453.084,-1.2771,7.3613,6.2956,0.006104,0.002502,0.007431,25.5936,-14.6912,-31.6086,0.000000,0.000000,0.0,0.00,0.0
3453.086,-1.2939,7.4260,6.3243,0.007172,0.003555,0.004242,25.5936,-14.6912,-31.6086,0.000000,0.000000,0.0,0.00,0.0
3453.089,-1.3250,7.3757,6.3243,0.007172,0.003555,0.005310,25.5936,-14.6912,-31.6086,0.000000,0.000000,0.0,0.00,0.0
3453.091,-1.3681,7.3613,6.2980,0.007172,0.003555,0.004242,25.5936,-14.6912,-31.6086,0.000000,0.000000,0.0,0.00,0.0
3453.093,-1.3394,7.3805,6.2477,0.007172,0.000366,-0.000015,26.1993,-14.8438,-34.3567,0.000000,0.000000,0.0,0.00,0.0
3453.095,-1.3394,7.3781,6.2429,0.003967,-0.002823,0.001053,26.1993,-14.8438,-34.3567,0.000000,0.000000,0.0,0.00,0.0
3453.098,-1.3753,7.3278,6.2070,0.003967,0.000366,0.002106,26.1993,-14.8438,-34.3567,0.000000,0.000000,0.0,0.00,0.0
3453.101,-1.3921,7.3661,6.2190,0.001846,-0.001770,0.002106,26.1993,-14.8438,-34.3567,0.000000,0.000000,0.0,0.00,0.0
3453.103,-1.3969,7.3398,6.2333,0.002899,-0.002823,-0.001083,26.1993,-14.8438,-34.3567,0.000000,0.000000,0.0,0.00,0.0
3453.106,-1.4136,7.3062,6.2022,0.002899,-0.003891,0.001053,26.1993,-14.8438,-34.3567,0.000000,0.000000,0.0,0.00,0.0
3453.108,-1.4112,7.2895,6.1615,0.002899,-0.003891,0.003174,26.1993,-14.8438,-34.3567,0.000000,0.000000,0.0,0.00,0.0
3453.111,-1.4208,7.2440,6.1855,0.000778,-0.006027,0.003174,26.1993,-14.8438,-34.3567,0.000000,0.000000,0.0,0.00,0.0
3453.113,-1.4400,7.3038,6.2190,-0.001358,-0.004959,0.005310,25.2914,-13.9359,-32.6599,0.000000,0.000000,0.0,0.00,0.0
3453.116,-1.4352,7.3422,6.2286,-0.000290,-0.002823,0.005310,25.2914,-13.9359,-32.6599,0.000000,0.000000,0.0,0.00,0.0
3453.121,-1.3681,7.3206,6.2932,-0.002426,-0.003891,0.005310,25.2914,-13.9359,-32.6599,0.000000,0.000000,0.0,0.00,0.0
3453.121,-1.3203,7.3398,6.2645,-0.004547,-0.006027,0.008499,25.2914,-13.9359,-32.6599,0.000000,0.000000,0.0,0.00,0.0
3453.124,-1.2676,7.3685,6.2429,-0.003479,-0.004959,0.007431,25.2914,-13.9359,-32.6599,0.000000,0.000000,0.0,0.00,0.0
3453.127,-1.3298,7.3446,6.2860,-0.005615,-0.004959,0.004242,25.2914,-13.9359,-32.6599,0.000000,0.000000,0.0,0.00,0.0
3453.129,-1.2891,7.3613,6.3387,-0.002426,-0.007095,0.003174,25.2914,-13.9359,-32.6599,0.000000,0.000000,0.0,0.00,0.0
3453.131,-1.2628,7.3805,6.3363,-0.002426,-0.007095,0.004242,25.2914,-13.9359,-32.6599,0.000000,0.000000,0.0,0.00,0.0
3453.134,-1.3155,7.3110,6.3698,-0.000290,-0.007095,0.005310,24.5209,-15.7684,-33.4641,0.000000,0.000000,0.0,0.00,0.0
3453.136,-1.3250,7.3278,6.4009,-0.000290,-0.002823,0.002106,24.5209,-15.7684,-33.4641,0.000000,0.000000,0.0,0.00,0.0
3453.139,-1.3203,7.3326,6.3531,0.001846,-0.002823,0.003174,24.5209,-15.7684,-33.4641,0.000000,0.000000,0.0,0.00,0.0
3453.141,-1.3442,7.3326,6.3291,-0.000290,-0.004959,0.003174,24.5209,-15.7684,-33.4641,0.000000,0.000000,0.0,0.00,0.0
3453.144,-1.3418,7.3134,6.3626,-0.002426,0.001434,0.001053,24.5209,-15.7684,-33.4641,0.000000,0.000000,0.0,0.00,0.0
3453.148,-1.3490,7.3422,6.3602,0.002899,0.004623,0.002106,24.5209,-15.7684,-33.4641,0.000000,0.000000,0.0,0.00,0.0
3453.149,-1.3322,7.3254,6.3267,0.005035,0.004623,0.001053,24.5209,-15.7684,-33.4641,0.000000,0.000000,0.0,0.00,0.0
3453.151,-1.3250,7.3302,6.3291,0.008224,0.007828,0.002106,24.5209,-15.7684,-33.4641,0.000000,0.000000,0.0,0.00,0.0
3453.153,-1.3538,7.3422,6.3219,0.010361,0.007828,0.004242,27.2705,-14.8285,-31.4575,0.000000,0.000000,0.0,0.00,0.0
3453.157,-1.3418,7.3110,6.3028,0.010361,0.009949,0.006378,27.2705,-14.8285,-31.4575,0.000000,0.000000,0.0,0.00,0.0
3453.159,-1.2939,7.3302,6.2645,0.011429,0.012085,0.006378,27.2705,-14.8285,-31.4575,0.000000,0.000000,0.0,0.00,0.0
3453.161,-1.2891,7.3158,6.2501,0.012497,0.011017,0.003174,27.2705,-14.8285,-31.4575,0.000000,0.000000,0.0,0.00,0.0
3453.165,-1.2987,7.3613,6.2357,0.011429,0.009949,0.004242,27.2705,-14.8285,-31.4575,0.000000,0.000000,0.0,0.00,0.0
3453.166,-1.3059,7.3493,6.2525,0.013565,0.014221,0.006378,27.2705,-14.8285,-31.4575,0.000000,0.000000,0.0,0.00,0.0
3453.170,-1.3226,7.3589,6.2740,0.011429,0.008896,0.003174,27.2705,-14.8285,-31.4575,0.000000,0.000000,0.0,0.00,0.0
3453.171,-1.3011,7.3757,6.1950,0.008224,0.006760,0.002106,27.2705,-14.8285,-31.4575,0.000000,0.000000,0.0,0.00,0.0
3453.173,-1.2676,7.3829,6.1879,0.009293,0.007828,-0.000015,24.9786,-15.7623,-32.7011,0.000000,0.000000,0.0,0.00,0.0
3453.176,-1.3059,7.4188,6.2309,0.011429,0.004623,0.002106,24.9786,-15.7623,-32.7011,0.000000,0.000000,0.0,0.00,0.0
3453.180,-1.2987,7.3853,6.2309,0.008224,0.000366,0.001053,24.9786,-15.7623,-32.7011,0.000000,0.000000,0.0,0.00,0.0
3453.181,-1.3203,7.4212,6.2621,0.006104,-0.002823,-0.001083,24.9786,-15.7623,-32.7011,0.000000,0.000000,0.0,0.00,0.0
3453.184,-1.3538,7.3565,6.2573,0.006104,-0.002823,-0.003220,24.9786,-15.7623,-32.7011,0.000000,0.000000,0.0,0.00,0.0
3453.187,-1.3873,7.3805,6.2477,0.002899,-0.008163,-0.004288,24.9786,-15.7623,-32.7011,0.000000,0.000000,0.0,0.00,0.0
3453.189,-1.3945,7.3398,6.2693,-0.000290,-0.010284,-0.004288,24.9786,-15.7623,-32.7011,0.000000,0.000000,0.0,0.00,0.0
3453.192,-1.4184,7.3110,6.3363,0.000778,-0.010284,-0.004288,24.9786,-15.7623,-32.7011,0.000000,0.000000,0.0,0.00,0.0
3453.194,-1.4304,7.3038,6.3147,0.000778,-0.009216,-0.004288,26.3596,-13.9252,-31.5903,0.000000,0.000000,0.0,0.00,0.0
3453.197,-1.4639,7.3517,6.3267,-0.000290,-0.010284,-0.003220,26.3596,-13.9252,-31.5903,0.000000,0.000000,0.0,0.00,0.0
3453.200,-1.4495,7.3565,6.3555,-0.001358,-0.009216,-0.002151,26.3596,-13.9252,-31.5903,0.000000,0.000000,0.0,0.00,0.0
3453.202,-1.4663,7.3398,6.3076,-0.000290,-0.011353,-0.000015,26.3596,-13.9252,-31.5903,0.000000,0.000000,0.0,0.00,0.0
3453.204,-1.4256,7.3398,6.3123,0.005035,-0.012421,0.004242,26.3596,-13.9252,-31.5903,0.000000,0.000000,0.0,0.00,0.0
3453.207,-1.4040,7.3493,6.3195,0.008224,-0.010284,0.006378,26.3596,-13.9252,-31.5903,0.000000,0.000000,0.0,0.00,0.0
3453.209,-1.4088,7.3733,6.2956,0.011429,-0.008163,0.006378,26.3596,-13.9252,-31.5903,0.000000,0.000000,0.0,0.00,0.0
3453.212,-1.3849,7.3853,6.2908,0.012497,-0.007095,0.011703,26.3596,-13.9252,-31.5903,0.000000,0.000000,0.0,0.00,0.0
3453.214,-1.3681,7.3493,6.2286,0.011429,-0.007095,0.011703,25.5920,-15.1474,-31.6193,0.000000,0.000000,0.0,0.00,0.0
3453.217,-1.3562,7.3446,6.2453,0.013565,-0.006027,0.011703,25.5920,-15.1474,-31.6193,0.000000,0.000000,0.0,0.00,0.0
3453.220,-1.3155,7.3685,6.2214,0.017822,-0.011353,0.010635,25.5920,-15.1474,-31.6193,0.000000,0.000000,0.0,0.00,0.0
3453.222,-1.3059,7.3326,6.2932,0.015686,-0.011353,0.009567,25.5920,-15.1474,-31.6193,0.000000,0.000000,0.0,0.00,0.0
3453.224,-1.2891,7.3493,6.2477,0.014618,-0.008163,0.008499,25.5920,-15.1474,-31.6193,0.000000,0.000000,0.0,0.00,0.0
3453.227,-1.2963,7.3637,6.2333,0.013565,-0.009216,0.004242,25.5920,-15.1474,-31.6193,0.000000,0.000000,0.0,0.00,0.0
3453.230,-1.3226,7.4092,6.2381,0.013565,-0.010284,0.005310,25.5920,-15.1474,-31.6193,0.000000,0.000000,0.0,0.00,0.0
3453.232,-1.3059,7.3446,6.2740,0.010361,-0.010284,0.004242,25.5920,-15.1474,-31.6193,0.000000,0.000000,0.0,0.00,0.0
3453.234,-1.3609,7.3637,6.2453,0.008224,-0.007095,0.005310,26.2085,-13.4720,-32.4951,0.000000,0.000000,0.0,0.00,0.0
3453.237,-1.3705,7.3900,6.2621,0.007172,-0.004959,0.006378,26.2085,-13.4720,-32.4951,0.000000,0.000000,0.0,0.00,0.0
3453.240,-1.3514,7.2775,6.2238,0.005035,-0.002823,0.003174,26.2085,-13.4720,-32.4951,0.000000,0.000000,0.0,0.00,0.0
3453.242,-1.3777,7.3086,6.2190,0.006104,0.001434,0.001053,26.2085,-13.4720,-32.4951,0.000000,0.000000,0.0,0.00,0.0
3453.245,-1.4064,7.3350,6.2429,0.005035,-0.001770,0.005310,26.2085,-13.4720,-32.4951,0.000000,0.000000,0.0,0.00,0.0
3453.247,-1.3921,7.3470,6.2214,0.007172,-0.003891,0.005310,26.2085,-13.4720,-32.4951,0.000000,0.000000,0.0,0.00,0.0
3453.249,-1.4184,7.3206,6.1687,0.005035,-0.002823,0.006378,26.2085,-13.4720,-32.4951,0.000000,0.000000,0.0,0.00,0.0
3453.252,-1.3897,7.3517,6.2381,0.002899,-0.000702,0.007431,26.2085,-13.4720,-32.4951,0.000000,0.000000,0.0,0.00,0.0
3453.255,-1.3514,7.3589,6.2238,0.005035,-0.002823,0.008499,25.2899,-14.3921,-32.6706,0.000000,0.000000,0.0,0.00,0.0
3453.257,-1.3514,7.3924,6.2166,0.003967,-0.001770,0.010635,25.2899,-14.3921,-32.6706,0.000000,0.000000,0.0,0.00,0.0
3453.260,-1.3059,7.3757,6.1902,0.000778,-0.000702,0.010635,25.2899,-14.3921,-32.6706,0.000000,0.000000,0.0,0.00,0.0
3453.262,-1.2747,7.3661,6.1926,-0.000290,0.000366,0.008499,25.2899,-14.3921,-32.6706,0.000000,0.000000,0.0,0.00,0.0
3453.265,-1.2867,7.3733,6.2333,0.000778,-0.002823,0.006378,25.2899,-14.3921,-32.6706,0.000000,0.000000,0.0,0.00,0.0
3453.267,-1.2604,7.3422,6.2190,-0.000290,-0.008163,0.007431,25.2899,-14.3921,-32.6706,0.000000,0.000000,0.0,0.00,0.0
3453.271,-1.2436,7.3541,6.2621,0.000778,-0.009216,0.005310,25.2899,-14.3921,-32.6706,0.000000,0.000000,0.0,0.00,0.0
3453.272,-1.2269,7.3589,6.2477,-0.000290,-0.008163,0.005310,25.2899,-14.3921,-32.6706,0.000000,0.000000,0.0,0.00,0.0
3453.274,-1.2580,7.3206,6.2286,-0.002426,-0.009216,0.005310,24.9741,-16.5222,-32.4142,0.000000,0.000000,0.0,0.00,0.0
3453.277,-1.2221,7.3230,6.2597,-0.007751,-0.010284,0.002106,24.9741,-16.5222,-32.4142,0.000000,0.000000,0.0,0.00,0.0
3453.280,-1.2101,7.3182,6.2717,-0.004547,-0.011353,-0.001083,24.9741,-16.5222,-32.4142,0.000000,0.000000,0.0,0.00,0.0
3453.283,-1.2317,7.3422,6.2645,-0.007751,-0.011353,-0.002151,24.9741,-16.5222,-32.4142,0.000000,0.000000,0.0,0.00,0.0
3453.285,-1.2365,7.3541,6.2549,-0.008820,-0.011353,-0.005341,24.9741,-16.5222,-32.4142,0.000000,0.000000,0.0,0.00,0.0
3453.287,-1.2580,7.3206,6.2333,-0.006683,-0.009216,-0.006409,24.9741,-16.5222,-32.4142,0.000000,0.000000,0.0,0.00,0.0
3453.290,-1.3179,7.3350,6.2860,-0.008820,-0.006027,-0.006409,24.9741,-16.5222,-32.4142,0.000000,0.000000,0.0,0.00,0.0
3453.293,-1.2891,7.3350,6.2836,-0.010941,-0.006027,-0.009613,24.9741,-16.5222,-32.4142,0.000000,0.000000,0.0,0.00,0.0
3453.295,-1.3107,7.3302,6.2956,-0.010941,-0.003891,-0.011734,25.1297,-15.9134,-32.5516,0.000000,0.000000,0.0,0.00,0.0
3453.298,-1.3346,7.3110,6.2357,-0.010941,-0.001770,-0.010666,25.1297,-15.9134,-32.5516,0.000000,0.000000,0.0,0.00,0.0
3453.299,-1.3945,7.3206,6.2645,-0.008820,-0.003891,-0.009613,25.1297,-15.9134,-32.5516,0.000000,0.000000,0.0,0.00,0.0
3453.302,-1.3993,7.3565,6.3028,-0.008820,-0.002823,-0.009613,25.1297,-15.9134,-32.5516,0.000000,0.000000,0.0,0.00,0.0
3453.305,-1.4232,7.3661,6.2717,-0.007751,-0.001770,-0.009613,25.1297,-15.9134,-32.5516,0.000000,0.000000,0.0,0.00,0.0
3453.307,-1.4304,7.3422,6.2405,-0.008820,-0.002823,-0.009613,25.1297,-15.9134,-32.5516,0.000000,0.000000,0.0,0.00,0.0
3453.310,-1.4615,7.3565,6.2501,-0.006683,-0.003891,-0.007477,25.1297,-15.9134,-32.5516,0.000000,0.000000,0.0,0.00,0.0
3453.313,-1.4328,7.3565,6.3004,-0.006683,-0.003891,-0.008545,26.0559,-13.3240,-33.4076,0.000000,0.000000,0.0,0.00,0.0
3453.314,-1.4447,7.3685,6.2381,-0.003479,-0.002823,-0.007477,26.0559,-13.3240,-33.4076,0.000000,0.000000,0.0,0.00,0.0
3453.318,-1.4184,7.3757,6.2740,-0.003479,-0.002823,-0.001083,26.0559,-13.3240,-33.4076,0.000000,0.000000,0.0,0.00,0.0
3453.320,-1.4352,7.3757,6.2836,-0.002426,-0.007095,-0.003220,26.0559,-13.3240,-33.4076,0.000000,0.000000,0.0,0.00,0.0
3453.323,-1.4256,7.3517,6.2597,-0.001358,-0.006027,-0.001083,26.0559,-13.3240,-33.4076,0.000000,0.000000,0.0,0.00,0.0
3453.325,-1.4088,7.3422,6.3123,0.000778,-0.000702,0.002106,26.0559,-13.3240,-33.4076,0.000000,0.000000,0.0,0.00,0.0
3453.328,-1.3705,7.4188,6.3052,0.001846,-0.001770,0.005310,26.0559,-13.3240,-33.4076,0.000000,0.000000,0.0,0.00,0.0
3453.330,-1.3993,7.3876,6.2788,0.005035,-0.003891,0.005310,26.0559,-13.3240,-33.4076,0.000000,0.000000,0.0,0.00,0.0
3453.333,-1.3609,7.3829,6.2693,0.003967,-0.000702,0.008499,25.4425,-14.5401,-31.4529,0.000000,0.000000,0.0,0.00,0.0
3453.335,-1.3657,7.3637,6.2932,0.003967,-0.006027,0.004242,25.4425,-14.5401,-31.4529,0.000000,0.000000,0.0,0.00,0.0
3453.337,-1.3705,7.3254,6.2405,0.002899,-0.008163,0.005310,25.4425,-14.5401,-31.4529,0.000000,0.000000,0.0,0.00,0.0
3453.341,-1.3586,7.3757,6.2118,0.000778,-0.008163,0.005310,25.4425,-14.5401,-31.4529,0.000000,0.000000,0.0,0.00,0.0
3453.343,-1.3681,7.4092,6.2597,-0.000290,-0.009216,0.003174,25.4425,-14.5401,-31.4529,0.000000,0.000000,0.0,0.00,0.0
3453.345,-1.3155,7.3326,6.2549,-0.000290,-0.008163,0.005310,25.4425,-14.5401,-31.4529,0.000000,0.000000,0.0,0.00,0.0
3453.348,-1.3562,7.3589,6.2501,-0.002426,-0.007095,0.004242,25.4425,-14.5401,-31.4529,0.000000,0.000000,0.0,0.00,0.0
3453.350,-1.3801,7.3876,6.2764,-0.002426,-0.006027,0.002106,25.4425,-14.5401,-31.4529,0.000000,0.000000,0.0,0.00,0.0
3453.353,-1.3849,7.3781,6.2333,-0.003479,-0.009216,-0.000015,24.9908,-13.3316,-32.6462,0.000000,0.000000,0.0,0.00,0.0
3453.356,-1.3609,7.3374,6.2549,-0.004547,-0.009216,0.003174,24.9908,-13.3316,-32.6462,0.000000,0.000000,0.0,0.00,0.0
3453.358,-1.3681,7.3350,6.2884,-0.003479,-0.012421,0.003174,24.9908,-13.3316,-32.6462,0.000000,0.000000,0.0,0.00,0.0
3453.361,-1.3394,7.3876,6.3195,-0.003479,-0.015610,0.002106,24.9908,-13.3316,-32.6462,0.000000,0.000000,0.0,0.00,0.0
3453.363,-1.3609,7.3374,6.3004,-0.004547,-0.017746,0.003174,24.9908,-13.3316,-32.6462,0.000000,0.000000,0.0,0.00,0.0
3453.365,-1.3442,7.3517,6.3722,-0.000290,-0.022003,0.003174,24.9908,-13.3316,-32.6462,0.000000,0.000000,0.0,0.00,0.0
3453.368,-1.3298,7.3565,6.3363,0.006104,-0.019867,0.005310,24.9908,-13.3316,-32.6462,0.000000,0.000000,0.0,0.00,0.0
3453.370,-1.3370,7.3446,6.4201,0.003967,-0.020935,0.005310,24.9908,-13.3316,-32.6462,0.000000,0.000000,0.0,0.00,0.0
3453.373,-1.3250,7.3398,6.3746,0.002899,-0.022003,0.003174,25.8926,-15.6036,-33.0017,0.000000,0.000000,0.0,0.00,0.0
3453.375,-1.2771,7.3302,6.2932,0.005035,-0.018814,0.004242,25.8926,-15.6036,-33.0017,0.000000,0.000000,0.0,0.00,0.0
3453.378,-1.3107,7.3206,6.3052,0.008224,-0.016678,0.005310,25.8926,-15.6036,-33.0017,0.000000,0.000000,0.0,0.00,0.0
3453.381,-1.2939,7.3446,6.3076,0.011429,-0.007095,0.002106,25.8926,-15.6036,-33.0017,0.000000,0.000000,0.0,0.00,0.0
3453.383,-1.3083,7.3613,6.3147,0.008224,-0.008163,0.004242,25.8926,-15.6036,-33.0017,0.000000,0.000000,0.0,0.00,0.0
3453.386,-1.3059,7.3110,6.2908,0.006104,-0.003891,0.006378,25.8926,-15.6036,-33.0017,0.000000,0.000000,0.0,0.00,0.0
3453.388,-1.3274,7.3374,6.2573,0.009293,-0.004959,0.005310,25.8926,-15.6036,-33.0017,0.000000,0.000000,0.0,0.00,0.0
3453.391,-1.2963,7.3493,6.1950,0.010361,0.001434,0.004242,25.8926,-15.6036,-33.0017,0.000000,0.000000,0.0,0.00,0.0
3453.393,-1.2652,7.3565,6.2142,0.010361,0.001434,-0.000015,24.5209,-15.4648,-33.7616,0.000000,0.000000,0.0,0.00,0.0
3453.395,-1.3179,7.3541,6.2357,0.009293,0.003555,0.003174,24.5209,-15.4648,-33.7616,0.000000,0.000000,0.0,0.00,0.0
3453.398,-1.3179,7.3757,6.2333,0.007172,0.004623,0.003174,24.5209,-15.4648,-33.7616,0.000000,0.000000,0.0,0.00,0.0
3453.400,-1.3131,7.3805,6.2333,0.009293,0.009949,0.002106,24.5209,-15.4648,-33.7616,0.000000,0.000000,0.0,0.00,0.0
3453.403,-1.2891,7.3661,6.2118,0.009293,0.011017,0.001053,24.5209,-15.4648,-33.7616,0.000000,0.000000,0.0,0.00,0.0
3453.406,-1.3107,7.3709,6.2381,0.005035,0.009949,-0.001083,24.5209,-15.4648,-33.7616,0.000000,0.000000,0.0,0.00,0.0
3453.408,-1.3586,7.3470,6.2262,0.003967,0.008896,-0.002151,24.5209,-15.4648,-33.7616,0.000000,0.000000,0.0,0.00,0.0
3453.411,-1.3538,7.3326,6.2022,0.003967,0.009949,-0.005341,24.5209,-15.4648,-33.7616,0.000000,0.000000,0.0,0.00,0.0
3453.413,-1.3514,7.3613,6.1783,-0.002426,0.009949,-0.002151,25.5875,-15.7562,-32.3959,0.000000,0.000000,0.0,0.00,0.0
3453.416,-1.3753,7.3134,6.1831,-0.002426,0.006760,-0.004288,25.5875,-15.7562,-32.3959,0.000000,0.000000,0.0,0.00,0.0
3453.418,-1.4040,7.3493,6.1615,-0.001358,0.003555,-0.003220,25.5875,-15.7562,-32.3959,0.000000,0.000000,0.0,0.00,0.0
3453.421,-1.3777,7.3446,6.1304,-0.004547,0.002502,-0.003220,25.5875,-15.7562,-32.3959,0.000000,0.000000,0.0,0.00,0.0
3453.424,-1.3825,7.3422,6.2022,-0.006683,0.000366,-0.005341,25.5875,-15.7562,-32.3959,0.000000,0.000000,0.0,0.00,0.0
3453.426,-1.4064,7.3374,6.1879,-0.006683,-0.003891,-0.003220,25.5875,-15.7562,-32.3959,0.000000,0.000000,0.0,0.00,0.0
3453.428,-1.3945,7.3398,6.1711,-0.009872,-0.003891,-0.001083,25.5875,-15.7562,-32.3959,0.000000,0.000000,0.0,0.00,0.0
3453.431,-1.3753,7.3924,6.1615,-0.009872,-0.006027,-0.002151,25.5875,-15.7562,-32.3959,0.000000,0.000000,0.0,0.00,0.0
3453.433,-1.4136,7.3733,6.1519,-0.013077,-0.010284,-0.001083,26.2039,-14.2334,-33.2748,0.000000,0.000000,0.0,0.00,0.0
3453.436,-1.4256,7.3278,6.2142,-0.012009,-0.008163,-0.003220,26.2039,-14.2334,-33.2748,0.000000,0.000000,0.0,0.00,0.0
3453.439,-1.4040,7.3398,6.2501,-0.012009,-0.009216,-0.001083,26.2039,-14.2334,-33.2748,0.000000,0.000000,0.0,0.00,0.0
3453.441,-1.3394,7.3589,6.2262,-0.013077,-0.009216,-0.002151,26.2039,-14.2334,-33.2748,0.000000,0.000000,0.0,0.00,0.0
3453.444,-1.3370,7.3470,6.2597,-0.015198,-0.008163,-0.001083,26.2039,-14.2334,-33.2748,0.000000,0.000000,0.0,0.00,0.0
3453.446,-1.3226,7.3182,6.2621,-0.014145,-0.011353,-0.002151,26.2039,-14.2334,-33.2748,0.000000,0.000000,0.0,0.00,0.0
3453.448,-1.3394,7.3110,6.2453,-0.014145,-0.014542,-0.000015,26.2039,-14.2334,-33.2748,0.000000,0.000000,0.0,0.00,0.0
3453.450,-1.3250,7.3254,6.2908,-0.013077,-0.013489,0.002106,26.2039,-14.2334,-33.2748,0.000000,0.000000,0.0,0.00,0.0
3453.453,-1.3490,7.3326,6.3794,-0.015198,-0.013489,-0.000015,25.8942,-15.3000,-33.2993,0.000000,0.000000,0.0,0.00,0.0
3453.456,-1.3586,7.3446,6.4201,-0.014145,-0.013489,-0.000015,25.8942,-15.3000,-33.2993,0.000000,0.000000,0.0,0.00,0.0
3453.459,-1.3370,7.3446,6.3626,-0.014145,-0.015610,-0.001083,25.8942,-15.3000,-33.2993,0.000000,0.000000,0.0,0.00,0.0
3453.461,-1.3035,7.3661,6.3650,-0.009872,-0.016678,0.001053,25.8942,-15.3000,-33.2993,0.000000,0.000000,0.0,0.00,0.0
3453.464,-1.2963,7.3446,6.3698,-0.010941,-0.017746,0.004242,25.8942,-15.3000,-33.2993,0.000000,0.000000,0.0,0.00,0.0
3453.466,-1.3298,7.3613,6.3219,-0.009872,-0.014542,0.001053,25.8942,-15.3000,-33.2993,0.000000,0.000000,0.0,0.00,0.0
3453.472,-1.3562,7.3757,6.3698,-0.007751,-0.016678,-0.001083,25.8942,-15.3000,-33.2993,0.000000,0.000000,0.0,0.00,0.0
3453.472,-1.3418,7.3829,6.3985,-0.003479,-0.015610,0.002106,25.8942,-15.3000,-33.2993,0.000000,0.000000,0.0,0.00,0.0
3453.475,-1.3274,7.3517,6.3147,-0.000290,-0.014542,0.002106,26.3565,-14.3829,-32.3639,0.000000,0.000000,0.0,0.00,0.0
3453.476,-1.3705,7.3446,6.3219,0.000778,-0.013489,0.006378,26.3565,-14.3829,-32.3639,0.000000,0.000000,0.0,0.00,0.0
3453.478,-1.3729,7.3350,6.3626,0.002899,-0.007095,0.003174,26.3565,-14.3829,-32.3639,0.000000,0.000000,0.0,0.00,0.0
3453.482,-1.3131,7.3182,6.3818,0.002899,-0.002823,-0.000015,26.3565,-14.3829,-32.3639,0.000000,0.000000,0.0,0.00,0.0
3453.484,-1.3370,7.2967,6.3267,0.006104,-0.001770,0.004242,26.3565,-14.3829,-32.3639,0.000000,0.000000,0.0,0.00,0.0
3453.486,-1.3274,7.3254,6.2812,0.007172,0.004623,0.006378,26.3565,-14.3829,-32.3639,0.000000,0.000000,0.0,0.00,0.0
3453.489,-1.3011,7.3589,6.2477,0.005035,0.007828,0.003174,26.3565,-14.3829,-32.3639,0.000000,0.000000,0.0,0.00,0.0
3453.491,-1.2532,7.3948,6.2597,0.007172,0.005692,0.007431,26.3565,-14.3829,-32.3639,0.000000,0.000000,0.0,0.00,0.0
3453.494,-1.2484,7.3302,6.2118,0.008224,0.008896,0.009567,26.1978,-15.9027,-32.2464,0.000000,0.000000,0.0,0.00,0.0
3453.496,-1.2269,7.3565,6.2142,0.006104,0.007828,0.004242,26.1978,-15.9027,-32.2464,0.000000,0.000000,0.0,0.00,0.0
3453.498,-1.2388,7.3733,6.1735,0.003967,0.006760,0.004242,26.1978,-15.9027,-32.2464,0.000000,0.000000,0.0,0.00,0.0
3453.501,-1.2747,7.3805,6.1950,0.003967,0.005692,0.003174,26.1978,-15.9027,-32.2464,0.000000,0.000000,0.0,0.00,0.0
3453.504,-1.2867,7.3446,6.1711,-0.000290,0.007828,0.001053,26.1978,-15.9027,-32.2464,0.000000,0.000000,0.0,0.00,0.0
3453.512,-1.2819,7.3781,6.1807,-0.000290,0.007828,-0.001083,26.1978,-15.9027,-32.2464,0.000000,0.000000,0.0,0.00,0.0
3453.512,-1.2676,7.3709,6.2142,-0.000290,0.005692,-0.002151,26.1978,-15.9027,-32.2464,0.000000,0.000000,0.0,0.00,0.0
3453.512,-1.2747,7.3613,6.2357,-0.005615,0.006760,-0.005341,26.1978,-15.9027,-32.2464,0.000000,0.000000,0.0,0.00,0.0
3453.514,-1.3155,7.3517,6.2070,-0.006683,0.006760,-0.007477,24.5270,-14.3997,-33.4335,0.000000,0.000000,0.0,0.00,0.0
3453.517,-1.3370,7.3422,6.1879,-0.007751,0.006760,-0.007477,24.5270,-14.3997,-33.4335,0.000000,0.000000,0.0,0.00,0.0
3453.519,-1.3466,7.3637,6.2501,-0.009872,0.004623,-0.007477,24.5270,-14.3997,-33.4335,0.000000,0.000000,0.0,0.00,0.0
3453.521,-1.3921,7.3110,6.1998,-0.010941,0.000366,-0.007477,24.5270,-14.3997,-33.4335,0.000000,0.000000,0.0,0.00,0.0
3453.530,-1.4016,7.3134,6.2381,-0.008820,0.007828,-0.010666,24.5270,-14.3997,-33.4335,0.000000,0.000000,0.0,0.00,0.0
3453.531,-1.3729,7.3015,6.2573,-0.008820,0.004623,-0.005341,24.5270,-14.3997,-33.4335,0.000000,0.000000,0.0,0.00,0.0
3453.531,-1.3562,7.3326,6.2477,-0.009872,0.002502,-0.002151,24.5270,-14.3997,-33.4335,0.000000,0.000000,0.0,0.00,0.0
3453.533,-1.3729,7.3517,6.2597,-0.007751,0.005692,-0.004288,24.5270,-14.3997,-33.4335,0.000000,0.000000,0.0,0.00,0.0
3453.535,-1.3203,7.4020,6.2908,-0.007751,-0.000702,-0.004288,25.8987,-14.5386,-32.5195,0.000000,0.000000,0.0,0.00,0.0
3453.537,-1.3322,7.3876,6.2908,-0.008820,0.000366,-0.003220,25.8987,-14.5386,-32.5195,0.000000,0.000000,0.0,0.00,0.0
3453.539,-1.3490,7.3182,6.2884,-0.004547,-0.002823,-0.006409,25.8987,-14.5386,-32.5195,0.000000,0.000000,0.0,0.00,0.0
3453.542,-1.3418,7.3493,6.3147,-0.003479,-0.001770,-0.005341,25.8987,-14.5386,-32.5195,0.000000,0.000000,0.0,0.00,0.0
3453.544,-1.3633,7.3637,6.3123,-0.006683,-0.004959,-0.002151,25.8987,-14.5386,-32.5195,0.000000,0.000000,0.0,0.00,0.0
3453.546,-1.3586,7.3493,6.2333,-0.004547,-0.002823,-0.004288,25.8987,-14.5386,-32.5195,0.000000,0.000000,0.0,0.00,0.0
3453.549,-1.4088,7.3733,6.2429,-0.004547,0.004623,-0.003220,25.8987,-14.5386,-32.5195,0.000000,0.000000,0.0,0.00,0.0
3453.551,-1.4495,7.3302,6.2286,-0.005615,0.005692,-0.002151,25.8987,-14.5386,-32.5195,0.000000,0.000000,0.0,0.00,0.0
3453.554,-1.4495,7.3541,6.2429,-0.007751,0.007828,-0.003220,26.0422,-16.5131,-32.1075,0.000000,0.000000,0.0,0.00,0.0
3453.557,-1.4376,7.3637,6.2980,-0.007751,0.006760,0.001053,26.0422,-16.5131,-32.1075,0.000000,0.000000,0.0,0.00,0.0
3453.559,-1.4160,7.3565,6.2286,-0.006683,0.003555,0.002106,26.0422,-16.5131,-32.1075,0.000000,0.000000,0.0,0.00,0.0
3453.561,-1.4040,7.3422,6.2214,-0.006683,0.001434,0.003174,26.0422,-16.5131,-32.1075,0.000000,0.000000,0.0,0.00,0.0
3453.565,-1.3753,7.3757,6.2453,-0.005615,0.000366,0.003174,26.0422,-16.5131,-32.1075,0.000000,0.000000,0.0,0.00,0.0
3453.566,-1.4064,7.3541,6.2357,-0.006683,0.000366,0.003174,26.0422,-16.5131,-32.1075,0.000000,0.000000,0.0,0.00,0.0
3453.569,-1.3729,7.3613,6.2669,-0.005615,-0.001770,0.003174,26.0422,-16.5131,-32.1075,0.000000,0.000000,0.0,0.00,0.0
3453.571,-1.3274,7.3924,6.2333,-0.004547,-0.000702,0.004242,26.0422,-16.5131,-32.1075,0.000000,0.000000,0.0,0.00,0.0
3453.574,-1.3274,7.3876,6.2836,-0.007751,-0.007095,0.004242,26.8112,-15.1382,-32.0755,0.000000,0.000000,0.0,0.00,0.0
3453.577,-1.2891,7.3278,6.3123,-0.010941,-0.009216,0.004242,26.8112,-15.1382,-32.0755,0.000000,0.000000,0.0,0.00,0.0
3453.579,-1.3155,7.2967,6.2740,-0.009872,-0.007095,0.004242,26.8112,-15.1382,-32.0755,0.000000,0.000000,0.0,0.00,0.0
3453.582,-1.3370,7.3374,6.3435,-0.010941,-0.010284,0.002106,26.8112,-15.1382,-32.0755,0.000000,0.000000,0.0,0.00,0.0
3453.585,-1.3322,7.2991,6.3363,-0.009872,-0.011353,0.002106,26.8112,-15.1382,-32.0755,0.000000,0.000000,0.0,0.00,0.0
3453.587,-1.3418,7.3278,6.3794,-0.008820,-0.010284,0.001053,26.8112,-15.1382,-32.0755,0.000000,0.000000,0.0,0.00,0.0
3453.589,-1.2843,7.3398,6.3171,-0.010941,-0.014542,0.003174,26.8112,-15.1382,-32.0755,0.000000,0.000000,0.0,0.00,0.0
3453.592,-1.3107,7.3230,6.3507,-0.006683,-0.014542,0.002106,26.8112,-15.1382,-32.0755,0.000000,0.000000,0.0,0.00,0.0
3453.594,-1.3035,7.3517,6.3674,-0.008820,-0.014542,0.002106,26.9653,-14.5294,-32.5195,0.000000,0.000000,0.0,0.00,0.0
3453.597,-1.3394,7.3637,6.3435,-0.005615,-0.011353,-0.000015,26.9653,-14.5294,-32.5195,0.000000,0.000000,0.0,0.00,0.0
3453.599,-1.3155,7.3613,6.3555,-0.004547,-0.011353,-0.000015,26.9653,-14.5294,-32.5195,0.000000,0.000000,0.0,0.00,0.0
3453.601,-1.3322,7.3781,6.2980,-0.003479,-0.009216,0.002106,26.9653,-14.5294,-32.5195,0.000000,0.000000,0.0,0.00,0.0
3453.606,-1.3250,7.3134,6.2932,0.001846,-0.004959,0.002106,26.9653,-14.5294,-32.5195,0.000000,0.000000,0.0,0.00,0.0
3453.607,-1.3035,7.3493,6.2908,-0.000290,-0.001770,0.003174,26.9653,-14.5294,-32.5195,0.000000,0.000000,0.0,0.00,0.0
3453.609,-1.3059,7.3613,6.2908,-0.001358,-0.000702,0.003174,26.9653,-14.5294,-32.5195,0.000000,0.000000,0.0,0.00,0.0
3453.614,-1.3131,7.3829,6.2549,0.002899,0.002502,0.002106,26.9653,-14.5294,-32.5195,0.000000,0.000000,0.0,0.00,0.0
3453.615,-1.3107,7.3517,6.2429,0.000778,0.001434,0.003174,25.1419,-13.4811,-32.4966,0.000000,0.000000,0.0,0.00,0.0
3453.617,-1.3059,7.3470,6.2381,0.002899,0.001434,0.002106,25.1419,-13.4811,-32.4966,0.000000,0.000000,0.0,0.00,0.0
3453.620,-1.3203,7.4068,6.2405,-0.000290,0.007828,0.001053,25.1419,-13.4811,-32.4966,0.000000,0.000000,0.0,0.00,0.0
3453.622,-1.2724,7.3853,6.2333,-0.003479,0.006760,0.002106,25.1419,-13.4811,-32.4966,0.000000,0.000000,0.0,0.00,0.0
3453.625,-1.3514,7.3637,6.1855,-0.002426,0.001434,0.002106,25.1419,-13.4811,-32.4966,0.000000,0.000000,0.0,0.00,0.0
3453.631,-1.3274,7.3302,6.1902,-0.002426,-0.000702,0.002106,25.1419,-13.4811,-32.4966,0.000000,0.000000,0.0,0.00,0.0
3453.631,-1.3538,7.3158,6.1926,-0.002426,-0.001770,0.001053,25.1419,-13.4811,-32.4966,0.000000,0.000000,0.0,0.00,0.0
3453.634,-1.3729,7.3446,6.1807,-0.005615,-0.004959,-0.000015,25.1419,-13.4811,-32.4966,0.000000,0.000000,0.0,0.00,0.0
3453.635,-1.3633,7.3350,6.2453,-0.007751,-0.008163,0.001053,25.1434,-13.0280,-33.5541,0.000000,0.000000,0.0,0.00,0.0
3453.637,-1.3514,7.3374,6.2597,-0.007751,-0.010284,-0.000015,25.1434,-13.0280,-33.5541,0.000000,0.000000,0.0,0.00,0.0
3453.639,-1.3753,7.3637,6.2262,-0.008820,-0.014542,0.001053,25.1434,-13.0280,-33.5541,0.000000,0.000000,0.0,0.00,0.0
3453.642,-1.3586,7.3517,6.2429,-0.013077,-0.011353,0.001053,25.1434,-13.0280,-33.5541,0.000000,0.000000,0.0,0.00,0.0
3453.646,-1.3897,7.3158,6.3195,-0.007751,-0.013489,0.001053,25.1434,-13.0280,-33.5541,0.000000,0.000000,0.0,0.00,0.0
3453.647,-1.3442,7.3206,6.3243,-0.006683,-0.011353,0.002106,25.1434,-13.0280,-33.5541,0.000000,0.000000,0.0,0.00,0.0
3453.650,-1.3514,7.3350,6.3315,-0.008820,-0.012421,0.002106,25.1434,-13.0280,-33.5541,0.000000,0.000000,0.0,0.00,0.0
3453.652,-1.2963,7.3422,6.3363,-0.008820,-0.010284,0.001053,25.4425,-14.2395,-33.2764,0.000000,0.000000,0.0,0.00,0.0
3453.655,-1.2939,7.3613,6.3004,-0.009872,-0.009216,0.002106,25.4425,-14.2395,-33.2764,0.000000,0.000000,0.0,0.00,0.0
3453.657,-1.3011,7.3374,6.2717,-0.008820,-0.004959,-0.000015,25.4425,-14.2395,-33.2764,0.000000,0.000000,0.0,0.00,0.0
3453.659,-1.2963,7.2775,6.2597,-0.006683,-0.004959,-0.002151,25.4425,-14.2395,-33.2764,0.000000,0.000000,0.0,0.00,0.0
3453.663,-1.3179,7.3134,6.2597,-0.004547,-0.002823,-0.002151,25.4425,-14.2395,-33.2764,0.000000,0.000000,0.0,0.00,0.0
3453.665,-1.3490,7.3374,6.2597,-0.003479,0.000366,0.003174,25.4425,-14.2395,-33.2764,0.000000,0.000000,0.0,0.00,0.0
3453.667,-1.3155,7.2775,6.2573,-0.005615,-0.000702,0.002106,25.4425,-14.2395,-33.2764,0.000000,0.000000,0.0,0.00,0.0
3453.671,-1.2795,7.3110,6.2166,-0.004547,0.002502,-0.001083,25.4425,-14.2395,-33.2764,0.000000,0.000000,0.0,0.00,0.0
3453.672,-1.2891,7.3086,6.2190,-0.007751,0.003555,-0.002151,25.4395,-14.8468,-32.5272,0.000000,0.000000,0.0,0.00,0.0
3453.675,-1.3083,7.3182,6.2238,-0.006683,0.003555,-0.001083,25.4395,-14.8468,-32.5272,0.000000,0.000000,0.0,0.00,0.0
3453.677,-1.2580,7.3446,6.2836,-0.006683,-0.000702,-0.001083,25.4395,-14.8468,-32.5272,0.000000,0.000000,0.0,0.00,0.0
3453.680,-1.2891,7.3230,6.2932,-0.008820,0.002502,-0.003220,25.4395,-14.8468,-32.5272,0.000000,0.000000,0.0,0.00,0.0
3453.684,-1.3370,7.3541,6.2597,-0.008820,0.003555,-0.002151,25.4395,-14.8468,-32.5272,0.000000,0.000000,0.0,0.00,0.0
3453.685,-1.3107,7.3709,6.2932,-0.009872,0.001434,-0.004288,25.4395,-14.8468,-32.5272,0.000000,0.000000,0.0,0.00,0.0
3453.688,-1.2963,7.3685,6.2908,-0.008820,0.000366,-0.004288,25.4395,-14.8468,-32.5272,0.000000,0.000000,0.0,0.00,0.0
3453.690,-1.3370,7.3709,6.3507,-0.009872,0.001434,-0.003220,25.4395,-14.8468,-32.5272,0.000000,0.000000,0.0,0.00,0.0
3453.693,-1.3203,7.3757,6.2884,-0.008820,0.003555,-0.006409,26.0468,-15.1474,-33.4488,0.000000,0.000000,0.0,0.00,0.0
3453.695,-1.3274,7.3685,6.2908,-0.008820,0.003555,-0.006409,26.0468,-15.1474,-33.4488,0.000000,0.000000,0.0,0.00,0.0
3453.698,-1.3298,7.3541,6.3411,-0.008820,0.002502,-0.003220,26.0468,-15.1474,-33.4488,0.000000,0.000000,0.0,0.00,0.0
3453.700,-1.3729,7.3781,6.2597,-0.007751,0.006760,-0.005341,26.0468,-15.1474,-33.4488,0.000000,0.000000,0.0,0.00,0.0
3453.702,-1.4040,7.3685,6.2573,-0.006683,0.006760,-0.004288,26.0468,-15.1474,-33.4488,0.000000,0.000000,0.0,0.00,0.0
3453.705,-1.3873,7.3182,6.2932,-0.006683,0.004623,-0.001083,26.0468,-15.1474,-33.4488,0.000000,0.000000,0.0,0.00,0.0
3453.710,-1.4256,7.3422,6.2453,-0.006683,0.007828,0.001053,26.0468,-15.1474,-33.4488,0.000000,0.000000,0.0,0.00,0.0
3453.711,-1.3801,7.3589,6.2717,-0.007751,0.008896,-0.000015,26.0468,-15.1474,-33.4488,0.000000,0.000000,0.0,0.00,0.0
3453.713,-1.3945,7.3278,6.2501,-0.005615,0.011017,-0.000015,24.6750,-15.6113,-31.4789,0.000000,0.000000,0.0,0.00,0.0
3453.716,-1.3849,7.3757,6.2238,-0.007751,0.008896,0.001053,24.6750,-15.6113,-31.4789,0.000000,0.000000,0.0,0.00,0.0
3453.719,-1.4136,7.3565,6.2286,-0.005615,0.004623,0.004242,24.6750,-15.6113,-31.4789,0.000000,0.000000,0.0,0.00,0.0
3453.721,-1.3346,7.3589,6.2645,-0.002426,0.003555,0.004242,24.6750,-15.6113,-31.4789,0.000000,0.000000,0.0,0.00,0.0
3453.722,-1.3538,7.3374,6.2381,-0.003479,0.003555,0.004242,24.6750,-15.6113,-31.4789,0.000000,0.000000,0.0,0.00,0.0
3453.726,-1.3466,7.3685,6.2166,-0.006683,-0.003891,0.007431,24.6750,-15.6113,-31.4789,0.000000,0.000000,0.0,0.00,0.0
3453.728,-1.2747,7.3613,6.2884,-0.006683,-0.007095,0.004242,24.6750,-15.6113,-31.4789,0.000000,0.000000,0.0,0.00,0.0
3453.730,-1.2867,7.3661,6.2860,-0.007751,-0.010284,0.003174,24.6750,-15.6113,-31.4789,0.000000,0.000000,0.0,0.00,0.0
3453.732,-1.2939,7.4044,6.2932,-0.010941,-0.012421,0.002106,24.6750,-15.6113,-31.4789,0.000000,0.000000,0.0,0.00,0.0
3453.735,-1.2700,7.3278,6.3195,-0.007751,-0.009216,0.002106,24.6750,-15.6113,-31.4789,0.000000,0.000000,0.0,0.00,0.0
3453.738,-1.2771,7.3086,6.3315,-0.008820,-0.014542,0.001053,24.6750,-15.6113,-31.4789,0.000000,0.000000,0.0,0.00,0.0
3453.740,-1.3011,7.3206,6.2884,-0.009872,-0.018814,-0.002151,24.6750,-15.6113,-31.4789,0.000000,0.000000,0.0,0.00,0.0
3453.743,-1.3059,7.3805,6.2908,-0.010941,-0.015610,-0.003220,24.6750,-15.6113,-31.4789,0.000000,0.000000,0.0,0.00,0.0
3453.746,-1.3107,7.3829,6.3794,-0.009872,-0.015610,-0.003220,24.6750,-15.6113,-31.4789,0.000000,0.000000,0.0,0.00,0.0
3453.748,-1.3322,7.3661,6.2956,-0.007751,-0.015610,-0.003220,24.6750,-15.6113,-31.4789,0.000000,0.000000,0.0,0.00,0.0
3453.750,-1.3466,7.3470,6.3626,-0.007751,-0.020935,-0.004288,24.6750,-15.6113,-31.4789,0.000000,0.000000,0.0,0.00,0.0
3453.753,-1.3418,7.3446,6.3818,-0.007751,-0.016678,-0.004288,24.0585,-16.3818,-34.0881,0.000000,0.000000,0.0,0.00,0.0
3453.756,-1.3346,7.3302,6.3602,-0.004547,-0.011353,-0.001083,24.0585,-16.3818,-34.0881,0.000000,0.000000,0.0,0.00,0.0
3453.758,-1.3250,7.3302,6.3459,-0.001358,-0.011353,-0.003220,24.0585,-16.3818,-34.0881,0.000000,0.000000,0.0,0.00,0.0
3453.760,-1.3657,7.3517,6.3842,-0.000290,-0.012421,-0.002151,24.0585,-16.3818,-34.0881,0.000000,0.000000,0.0,0.00,0.0
3453.763,-1.3562,7.3829,6.4033,0.000778,-0.007095,-0.002151,24.0585,-16.3818,-34.0881,0.000000,0.000000,0.0,0.00,0.0
3453.766,-1.3370,7.3086,6.3387,-0.000290,-0.004959,0.001053,24.0585,-16.3818,-34.0881,0.000000,0.000000,0.0,0.00,0.0
3453.768,-1.3179,7.3517,6.3267,0.002899,-0.002823,0.003174,24.0585,-16.3818,-34.0881,0.000000,0.000000,0.0,0.00,0.0
3453.771,-1.3131,7.3206,6.3028,0.002899,-0.001770,-0.000015,24.0585,-16.3818,-34.0881,0.000000,0.000000,0.0,0.00,0.0
3453.773,-1.3322,7.3302,6.3076,0.003967,-0.003891,-0.000015,26.9592,-15.5960,-33.3054,0.000000,0.000000,0.0,0.00,0.0
3453.775,-1.3729,7.3709,6.2884,0.003967,0.001434,0.001053,26.9592,-15.5960,-33.3054,0.000000,0.000000,0.0,0.00,0.0
3453.778,-1.3777,7.3182,6.3219,0.006104,0.001434,0.001053,26.9592,-15.5960,-33.3054,0.000000,0.000000,0.0,0.00,0.0
3453.780,-1.3562,7.3350,6.3028,0.006104,0.001434,0.002106,26.9592,-15.5960,-33.3054,0.000000,0.000000,0.0,0.00,0.0
3453.783,-1.3777,7.3302,6.1998,0.003967,0.001434,-0.000015,26.9592,-15.5960,-33.3054,0.000000,0.000000,0.0,0.00,0.0
3453.786,-1.3681,7.3134,6.1902,0.005035,0.002502,-0.000015,26.9592,-15.5960,-33.3054,0.000000,0.000000,0.0,0.00,0.0
3453.789,-1.3777,7.3350,6.2357,0.005035,0.003555,0.002106,26.9592,-15.5960,-33.3054,0.000000,0.000000,0.0,0.00,0.0
3453.791,-1.3394,7.3278,6.2286,0.005035,-0.001770,0.002106,26.9592,-15.5960,-33.3054,0.000000,0.000000,0.0,0.00,0.0
3453.793,-1.3203,7.3110,6.2238,0.001846,-0.000702,0.004242,25.4349,-15.9103,-32.5516,0.000000,0.000000,0.0,0.00,0.0
3453.795,-1.3801,7.3230,6.1974,0.000778,-0.003891,0.002106,25.4349,-15.9103,-32.5516,0.000000,0.000000,0.0,0.00,0.0
3453.799,-1.3250,7.3326,6.2549,0.000778,-0.004959,-0.001083,25.4349,-15.9103,-32.5516,0.000000,0.000000,0.0,0.00,0.0
3453.801,-1.3226,7.2751,6.2645,-0.000290,-0.004959,0.003174,25.4349,-15.9103,-32.5516,0.000000,0.000000,0.0,0.00,0.0
3453.804,-1.2891,7.3110,6.1950,-0.005615,-0.002823,0.003174,25.4349,-15.9103,-32.5516,0.000000,0.000000,0.0,0.00,0.0
3453.806,-1.3849,7.3158,6.1807,-0.005615,-0.007095,0.002106,25.4349,-15.9103,-32.5516,0.000000,0.000000,0.0,0.00,0.0
3453.808,-1.3346,7.3565,6.1879,-0.005615,-0.003891,0.001053,25.4349,-15.9103,-32.5516,0.000000,0.000000,0.0,0.00,0.0
3453.811,-1.3059,7.3565,6.2166,-0.006683,-0.001770,-0.000015,25.4349,-15.9103,-32.5516,0.000000,0.000000,0.0,0.00,0.0
3453.813,-1.3322,7.3278,6.1879,-0.006683,0.000366,0.001053,25.4379,-14.8499,-34.0530,0.000000,0.000000,0.0,0.00,0.0
3453.816,-1.3514,7.3948,6.1543,-0.010941,0.000366,-0.000015,25.4379,-14.8499,-34.0530,0.000000,0.000000,0.0,0.00,0.0
3453.819,-1.3346,7.3757,6.1831,-0.015198,0.004623,-0.000015,25.4379,-14.8499,-34.0530,0.000000,0.000000,0.0,0.00,0.0
3453.820,-1.3155,7.3876,6.2286,-0.013077,0.001434,-0.003220,25.4379,-14.8499,-34.0530,0.000000,0.000000,0.0,0.00,0.0
3453.824,-1.3370,7.3637,6.1902,-0.015198,0.002502,-0.001083,25.4379,-14.8499,-34.0530,0.000000,0.000000,0.0,0.00,0.0
3453.826,-1.3107,7.3517,6.1807,-0.018402,-0.000702,-0.000015,25.4379,-14.8499,-34.0530,0.000000,0.000000,0.0,0.00,0.0
3453.829,-1.3203,7.3781,6.1759,-0.020538,-0.003891,-0.001083,25.4379,-14.8499,-34.0530,0.000000,0.000000,0.0,0.00,0.0
3453.831,-1.3346,7.3661,6.1950,-0.022659,-0.004959,-0.001083,25.4379,-14.8499,-34.0530,0.000000,0.000000,0.0,0.00,0.0
3453.833,-1.3538,7.3685,6.1998,-0.023727,-0.002823,-0.004288,24.5255,-15.1550,-31.3156,0.000000,0.000000,0.0,0.00,0.0
3453.835,-1.3418,7.3613,6.2070,-0.024796,-0.004959,-0.003220,24.5255,-15.1550,-31.3156,0.000000,0.000000,0.0,0.00,0.0
3453.839,-1.3825,7.3589,6.1998,-0.024796,-0.008163,-0.002151,24.5255,-15.1550,-31.3156,0.000000,0.000000,0.0,0.00,0.0
3453.841,-1.4064,7.3422,6.2429,-0.029053,-0.008163,-0.003220,24.5255,-15.1550,-31.3156,0.000000,0.000000,0.0,0.00,0.0
3453.843,-1.3777,7.3422,6.2190,-0.027985,-0.006027,-0.001083,24.5255,-15.1550,-31.3156,0.000000,0.000000,0.0,0.00,0.0
3453.846,-1.4064,7.3517,6.2142,-0.029053,-0.009216,-0.002151,24.5255,-15.1550,-31.3156,0.000000,0.000000,0.0,0.00,0.0
3453.849,-1.4040,7.3206,6.1807,-0.031189,-0.013489,-0.002151,24.5255,-15.1550,-31.3156,0.000000,0.000000,0.0,0.00,0.0
3453.851,-1.3801,7.3254,6.2357,-0.031189,-0.015610,-0.000015,24.5255,-15.1550,-31.3156,0.000000,0.000000,0.0,0.00,0.0
3453.853,-1.3657,7.3493,6.2597,-0.032242,-0.016678,0.001053,26.3596,-13.9267,-32.3532,0.000000,0.000000,0.0,0.00,0.0
3453.856,-1.3873,7.3398,6.2884,-0.029053,-0.019867,-0.001083,26.3596,-13.9267,-32.3532,0.000000,0.000000,0.0,0.00,0.0
3453.859,-1.3370,7.3086,6.2740,-0.030121,-0.017746,0.002106,26.3596,-13.9267,-32.3532,0.000000,0.000000,0.0,0.00,0.0
3453.861,-1.3274,7.3278,6.3219,-0.030121,-0.014542,0.005310,26.3596,-13.9267,-32.3532,0.000000,0.000000,0.0,0.00,0.0
3453.864,-1.3514,7.3134,6.3171,-0.026917,-0.014542,0.002106,26.3596,-13.9267,-32.3532,0.000000,0.000000,0.0,0.00,0.0
3453.866,-1.3370,7.3230,6.3411,-0.027985,-0.010284,0.003174,26.3596,-13.9267,-32.3532,0.000000,0.000000,0.0,0.00,0.0
3453.871,-1.3418,7.3230,6.3938,-0.030121,-0.009216,0.005310,26.3596,-13.9267,-32.3532,0.000000,0.000000,0.0,0.00,0.0
3453.871,-1.3059,7.3110,6.3866,-0.024796,-0.006027,0.009567,26.3596,-13.9267,-32.3532,0.000000,0.000000,0.0,0.00,0.0
3453.873,-1.3226,7.3350,6.4560,-0.021591,0.000366,0.008499,24.9863,-13.9404,-33.7280,0.000000,0.000000,0.0,0.00,0.0
3453.876,-1.2604,7.3541,6.3602,-0.020538,0.003555,0.008499,24.9863,-13.9404,-33.7280,0.000000,0.000000,0.0,0.00,0.0
3453.879,-1.2652,7.3446,6.3626,-0.018402,0.007828,0.008499,24.9863,-13.9404,-33.7280,0.000000,0.000000,0.0,0.00,0.0
3453.881,-1.2484,7.3685,6.3866,-0.017334,0.008896,0.009567,24.9863,-13.9404,-33.7280,0.000000,0.000000,0.0,0.00,0.0
3453.884,-1.2197,7.3757,6.3722,-0.015198,0.007828,0.006378,24.9863,-13.9404,-33.7280,0.000000,0.000000,0.0,0.00,0.0
3453.886,-1.1886,7.3589,6.3722,-0.015198,0.008896,0.005310,24.9863,-13.9404,-33.7280,0.000000,0.000000,0.0,0.00,0.0
3453.889,-1.1694,7.3374,6.3363,-0.017334,0.014221,0.005310,24.9863,-13.9404,-33.7280,0.000000,0.000000,0.0,0.00,0.0
3453.892,-1.1383,7.3685,6.3985,-0.017334,0.013153,0.003174,24.9863,-13.9404,-33.7280,0.000000,0.000000,0.0,0.00,0.0
3453.894,-1.1694,7.3829,6.3746,-0.008820,0.012085,0.003174,26.2039,-14.5355,-32.2144,0.000000,0.000000,0.0,0.00,0.0
3453.897,-1.2029,7.3493,6.3602,-0.008820,0.019547,-0.000015,26.2039,-14.5355,-32.2144,0.000000,0.000000,0.0,0.00,0.0
3453.899,-1.2101,7.3493,6.3602,-0.012009,0.015274,-0.003220,26.2039,-14.5355,-32.2144,0.000000,0.000000,0.0,0.00,0.0
3453.901,-1.2197,7.3374,6.3602,-0.012009,0.013153,-0.004288,26.2039,-14.5355,-32.2144,0.000000,0.000000,0.0,0.00,0.0
3453.904,-1.2891,7.3302,6.3985,-0.009872,0.013153,-0.006409,26.2039,-14.5355,-32.2144,0.000000,0.000000,0.0,0.00,0.0
3453.906,-1.3633,7.3517,6.3698,-0.009872,0.014221,-0.012802,26.2039,-14.5355,-32.2144,0.000000,0.000000,0.0,0.00,0.0
3453.909,-1.3538,7.3086,6.3818,-0.004547,0.020599,-0.010666,26.2039,-14.5355,-32.2144,0.000000,0.000000,0.0,0.00,0.0
3453.912,-1.3657,7.2871,6.4249,-0.002426,0.013153,-0.008545,26.2039,-14.5355,-32.2144,0.000000,0.000000,0.0,0.00,0.0
3453.914,-1.3777,7.2632,6.3961,-0.003479,0.015274,-0.009613,25.8987,-14.2365,-33.5800,0.000000,0.000000,0.0,0.00,0.0
3453.917,-1.3633,7.2775,6.4129,-0.001358,0.018478,-0.010666,25.8987,-14.2365,-33.5800,0.000000,0.000000,0.0,0.00,0.0
3453.919,-1.3921,7.3302,6.3555,0.003967,0.016342,-0.006409,25.8987,-14.2365,-33.5800,0.000000,0.000000,0.0,0.00,0.0
3453.922,-1.4280,7.3158,6.3483,0.002899,0.012085,-0.005341,25.8987,-14.2365,-33.5800,0.000000,0.000000,0.0,0.00,0.0
3453.924,-1.4304,7.2895,6.3459,0.000778,0.012085,-0.003220,25.8987,-14.2365,-33.5800,0.000000,0.000000,0.0,0.00,0.0
3453.927,-1.3873,7.3038,6.3243,0.006104,0.014221,-0.003220,25.8987,-14.2365,-33.5800,0.000000,0.000000,0.0,0.00,0.0
3453.929,-1.3945,7.3829,6.3411,0.006104,0.007828,-0.003220,25.8987,-14.2365,-33.5800,0.000000,0.000000,0.0,0.00,0.0
3453.932,-1.4352,7.3254,6.2597,0.009293,0.004623,-0.000015,25.8987,-14.2365,-33.5800,0.000000,0.000000,0.0,0.00,0.0
3453.934,-1.4256,7.3422,6.2980,0.009293,0.006760,-0.000015,26.2115,-13.0157,-32.4860,0.000000,0.000000,0.0,0.00,0.0
3453.937,-1.4280,7.2895,6.2908,0.008224,0.003555,0.003174,26.2115,-13.0157,-32.4860,0.000000,0.000000,0.0,0.00,0.0
3453.939,-1.4232,7.2847,6.2860,0.009293,0.000366,0.004242,26.2115,-13.0157,-32.4860,0.000000,0.000000,0.0,0.00,0.0
3453.942,-1.4136,7.3398,6.2693,0.006104,0.000366,0.003174,26.2115,-13.0157,-32.4860,0.000000,0.000000,0.0,0.00,0.0
3453.944,-1.4495,7.3422,6.2669,0.009293,-0.000702,0.006378,26.2115,-13.0157,-32.4860,0.000000,0.000000,0.0,0.00,0.0
3453.947,-1.4232,7.3876,6.2645,0.010361,-0.000702,0.008499,26.2115,-13.0157,-32.4860,0.000000,0.000000,0.0,0.00,0.0
3453.950,-1.4256,7.3972,6.2142,0.011429,-0.002823,0.008499,26.2115,-13.0157,-32.4860,0.000000,0.000000,0.0,0.00,0.0
3453.952,-1.3969,7.3733,6.2429,0.008224,-0.003891,0.011703,26.2115,-13.0157,-32.4860,0.000000,0.000000,0.0,0.00,0.0
3453.954,-1.3562,7.3446,6.1783,0.007172,-0.007095,0.011703,25.8972,-14.5401,-33.2825,0.000000,0.000000,0.0,0.00,0.0
3453.957,-1.3298,7.3565,6.2262,0.007172,-0.009216,0.010635,25.8972,-14.5401,-33.2825,0.000000,0.000000,0.0,0.00,0.0
3453.960,-1.3298,7.3924,6.2501,0.005035,-0.009216,0.009567,25.8972,-14.5401,-33.2825,0.000000,0.000000,0.0,0.00,0.0
3453.962,-1.3226,7.3493,6.1902,0.002899,-0.004959,0.010635,25.8972,-14.5401,-33.2825,0.000000,0.000000,0.0,0.00,0.0
3453.964,-1.3418,7.3685,6.1831,-0.001358,-0.010284,0.007431,25.8972,-14.5401,-33.2825,0.000000,0.000000,0.0,0.00,0.0
3453.967,-1.3298,7.3422,6.2573,-0.003479,-0.013489,0.007431,25.8972,-14.5401,-33.2825,0.000000,0.000000,0.0,0.00,0.0
3453.970,-1.2963,7.3230,6.2453,-0.005615,-0.011353,0.007431,25.8972,-14.5401,-33.2825,0.000000,0.000000,0.0,0.00,0.0
3453.972,-1.3107,7.3350,6.2453,-0.004547,-0.014542,0.007431,25.8972,-14.5401,-33.2825,0.000000,0.000000,0.0,0.00,0.0
3453.974,-1.3250,7.3637,6.2669,-0.004547,-0.012421,0.006378,25.9018,-14.2334,-31.7505,0.000000,0.000000,0.0,0.00,0.0
3453.977,-1.3035,7.3278,6.2836,-0.005615,-0.011353,0.006378,25.9018,-14.2334,-31.7505,0.000000,0.000000,0.0,0.00,0.0
3453.980,-1.2652,7.3661,6.2645,-0.006683,-0.010284,0.005310,25.9018,-14.2334,-31.7505,0.000000,0.000000,0.0,0.00,0.0
3453.982,-1.2867,7.3613,6.2788,-0.005615,-0.008163,0.004242,25.9018,-14.2334,-31.7505,0.000000,0.000000,0.0,0.00,0.0
3453.985,-1.2819,7.3876,6.2357,-0.008820,-0.009216,0.004242,25.9018,-14.2334,-31.7505,0.000000,0.000000,0.0,0.00,0.0
3453.988,-1.3059,7.3781,6.2549,-0.009872,-0.010284,0.004242,25.9018,-14.2334,-31.7505,0.000000,0.000000,0.0,0.00,0.0
3453.990,-1.3203,7.3733,6.3100,-0.010941,-0.007095,0.004242,25.9018,-14.2334,-31.7505,0.000000,0.000000,0.0,0.00,0.0
3453.992,-1.3035,7.3493,6.3483,-0.008820,-0.012421,0.001053,26.5091,-14.2303,-32.9697,0.000000,0.000000,0.0,0.00,0.0
3453.995,-1.3131,7.3470,6.3626,-0.007751,-0.012421,0.001053,26.5091,-14.2303,-32.9697,0.000000,0.000000,0.0,0.00,0.0
3453.998,-1.2891,7.3398,6.3507,-0.008820,-0.008163,-0.001083,26.5091,-14.2303,-32.9697,0.000000,0.000000,0.0,0.00,0.0
3454.000,-1.3035,7.3517,6.3483,-0.007751,-0.007095,-0.000015,26.5091,-14.2303,-32.9697,0.000000,0.000000,0.0,0.00,0.0
3454.002,-1.3298,7.3565,6.3531,-0.006683,-0.008163,0.001053,26.5091,-14.2303,-32.9697,0.000000,0.000000,0.0,0.00,0.0
3454.005,-1.3250,7.3182,6.3291,-0.005615,-0.004959,0.002106,26.5091,-14.2303,-32.9697,0.000000,0.000000,0.0,0.00,0.0
3454.007,-1.3155,7.2871,6.3243,-0.004547,-0.007095,-0.001083,26.5091,-14.2303,-32.9697,0.000000,0.000000,0.0,0.00,0.0
3454.010,-1.3418,7.3038,6.3650,-0.004547,-0.004959,-0.000015,26.5091,-14.2303,-32.9697,0.000000,0.000000,0.0,0.00,0.0
3454.013,-1.3250,7.2967,6.3147,-0.002426,-0.002823,-0.001083,25.2823,-15.7623,-33.4641,0.000000,0.000000,0.0,0.00,0.0
3454.015,-1.3083,7.2919,6.3267,-0.000290,-0.003891,0.001053,25.2823,-15.7623,-33.4641,0.000000,0.000000,0.0,0.00,0.0
3454.017,-1.3083,7.2847,6.3123,0.000778,-0.004959,-0.001083,25.2823,-15.7623,-33.4641,0.000000,0.000000,0.0,0.00,0.0
3454.020,-1.3370,7.3254,6.3147,-0.000290,-0.000702,-0.000015,25.2823,-15.7623,-33.4641,0.000000,0.000000,0.0,0.00,0.0
3454.023,-1.3322,7.3302,6.3052,0.001846,0.000366,0.002106,25.2823,-15.7623,-33.4641,0.000000,0.000000,0.0,0.00,0.0
3454.024,-1.3250,7.3541,6.2932,0.000778,0.001434,-0.003220,25.2823,-15.7623,-33.4641,0.000000,0.000000,0.0,0.00,0.0
3454.028,-1.3418,7.3541,6.2669,0.002899,0.002502,-0.000015,25.2823,-15.7623,-33.4641,0.000000,0.000000,0.0,0.00,0.0
3454.030,-1.3203,7.3565,6.2597,-0.002426,0.001434,0.001053,25.2823,-15.7623,-33.4641,0.000000,0.000000,0.0,0.00,0.0
3454.033,-1.3226,7.3422,6.2070,-0.002426,-0.002823,-0.000015,24.6689,-16.3773,-34.3933,0.000000,0.000000,0.0,0.00,0.0
3454.034,-1.3011,7.3613,6.2549,-0.002426,-0.010284,-0.002151,24.6689,-16.3773,-34.3933,0.000000,0.000000,0.0,0.00,0.0
3454.037,-1.2963,7.3589,6.2501,-0.005615,-0.009216,-0.001083,24.6689,-16.3773,-34.3933,0.000000,0.000000,0.0,0.00,0.0
3454.040,-1.2963,7.3470,6.2764,-0.002426,-0.009216,-0.003220,24.6689,-16.3773,-34.3933,0.000000,0.000000,0.0,0.00,0.0
3454.043,-1.2508,7.3134,6.2908,-0.001358,-0.010284,-0.004288,24.6689,-16.3773,-34.3933,0.000000,0.000000,0.0,0.00,0.0
3454.045,-1.2987,7.3374,6.2764,-0.005615,-0.009216,-0.005341,24.6689,-16.3773,-34.3933,0.000000,0.000000,0.0,0.00,0.0
3454.048,-1.2700,7.2943,6.3387,-0.008820,-0.011353,-0.004288,24.6689,-16.3773,-34.3933,0.000000,0.000000,0.0,0.00,0.0
3454.051,-1.3250,7.2679,6.3818,-0.007751,-0.012421,-0.005341,24.6689,-16.3773,-34.3933,0.000000,0.000000,0.0,0.00,0.0
3454.052,-1.3155,7.2967,6.3626,-0.006683,-0.008163,-0.004288,25.2914,-13.9374,-33.4213,0.000000,0.000000,0.0,0.00,0.0
3454.055,-1.3155,7.3038,6.3818,-0.006683,-0.007095,-0.004288,25.2914,-13.9374,-33.4213,0.000000,0.000000,0.0,0.00,0.0
3454.057,-1.3586,7.2727,6.3842,-0.004547,-0.001770,-0.006409,25.2914,-13.9374,-33.4213,0.000000,0.000000,0.0,0.00,0.0
3454.060,-1.3466,7.2991,6.3722,-0.004547,0.000366,-0.005341,25.2914,-13.9374,-33.4213,0.000000,0.000000,0.0,0.00,0.0
3454.062,-1.3825,7.2919,6.3842,-0.003479,-0.001770,-0.004288,25.2914,-13.9374,-33.4213,0.000000,0.000000,0.0,0.00,0.0
3454.065,-1.3633,7.2919,6.3387,-0.003479,-0.001770,-0.005341,25.2914,-13.9374,-33.4213,0.000000,0.000000,0.0,0.00,0.0
3454.067,-1.3801,7.2991,6.3555,-0.001358,0.002502,-0.002151,25.2914,-13.9374,-33.4213,0.000000,0.000000,0.0,0.00,0.0
3454.071,-1.3993,7.3853,6.3794,-0.001358,0.005692,0.001053,25.2914,-13.9374,-33.4213,0.000000,0.000000,0.0,0.00,0.0
3454.072,-1.3825,7.3374,6.3243,-0.000290,0.003555,0.001053,24.6765,-15.3076,-32.2342,0.000000,0.000000,0.0,0.00,0.0
3454.076,-1.3993,7.3517,6.2884,-0.001358,0.000366,-0.001083,24.6765,-15.3076,-32.2342,0.000000,0.000000,0.0,0.00,0.0
3454.078,-1.4280,7.3876,6.2884,0.000778,0.002502,-0.000015,24.6765,-15.3076,-32.2342,0.000000,0.000000,0.0,0.00,0.0
3454.081,-1.3801,7.3374,6.2453,0.000778,0.004623,0.002106,24.6765,-15.3076,-32.2342,0.000000,0.000000,0.0,0.00,0.0
3454.083,-1.3705,7.3446,6.2190,0.000778,0.003555,0.003174,24.6765,-15.3076,-32.2342,0.000000,0.000000,0.0,0.00,0.0
3454.085,-1.3993,7.3637,6.2645,0.000778,0.003555,0.004242,24.6765,-15.3076,-32.2342,0.000000,0.000000,0.0,0.00,0.0
